GPS TOW (s), GPS Week, Latitude (deg), Longitude (deg), Ellipsoid Height (m), ECEF X (m), ECEF Y (m), ECEF Z (m), Roll (deg), Pitch (deg), Heading (deg), Velocity X (m/s), Velocity Y (m/s), Velocity Z (m/s), Acceleration X (m/s^2), Acceleration Y (m/s^2), Acceleration Z (m/s^2), Angular rate X (rad/s), Angular rate Y (rad/s), Angular rate Z (rad/s)
273375.10, 2032, 35.62931853, 139.78712595, 44.6995, -3963426.7981, 3350882.1576, 3694865.5458, -1.511332, 1.714764, 326.649944, 0.003000, -0.000000, 0.000000, -0.17517300, -0.04017600, -0.12864900, 0.00182900000, 0.00099200000, 0.00037100000
273375.20, 2032, 35.62931853, 139.78712595, 44.6995, -3963426.7981, 3350882.1576, 3694865.5458, -1.510209, 1.716332, 326.650903, -0.001000, -0.003000, 0.002000, 0.09731100, 0.00640500, -0.10055700, -0.00098200000, -0.00013900000, 0.00022900000
273375.30, 2032, 35.62931853, 139.78712595, 44.6995, -3963426.7981, 3350882.1576, 3694865.5458, -1.511738, 1.715360, 326.650709, -0.004000, 0.003000, -0.003000, 0.07764100, 0.00183200, 0.17685000, -0.00038900000, -0.00172700000, -0.00066200000
273375.40, 2032, 35.62931853, 139.78712595, 44.6995, -3963426.7981, 3350882.1576, 3694865.5458, -1.509344, 1.715168, 326.650174, 0.003000, 0.000000, -0.000000, -0.18142700, 0.01004500, -0.14535600, 0.00203100000, 0.00015500000, 0.00051700000
273375.50, 2032, 35.62931853, 139.78712595, 44.6995, -3963426.7981, 3350882.1576, 3694865.5458, -1.510240, 1.716274, 326.651083, -0.004000, -0.002000, 0.001000, 0.22127000, 0.01942500, 0.03911700, -0.00207300000, -0.00036000000, -0.00015700000
273375.60, 2032, 35.62931853, 139.78712595, 44.6995, -3963426.7981, 3350882.1576, 3694865.5458, -1.512607, 1.715823, 326.650743, -0.003000, 0.001000, -0.002000, -0.06089400, -0.04385900, 0.09449700, -0.00022700000, -0.00073700000, -0.00057800000
273375.70, 2032, 35.62931853, 139.78712595, 44.6995, -3963426.7981, 3350882.1576, 3694865.5458, -1.513837, 1.715007, 326.649840, 0.003000, -0.002000, 0.003000, -0.13739000, 0.01300700, -0.18607700, 0.00129000000, 0.00116000000, 0.00071400000
273375.80, 2032, 35.62931853, 139.78712595, 44.6995, -3963426.7981, 3350882.1576, 3694865.5458, -1.517585, 1.715032, 326.650491, -0.004000, -0.001000, -0.000000, 0.24029700, 0.08615500, 0.16887900, -0.00216700000, -0.00073800000, -0.00043200000
273375.90, 2032, 35.62931853, 139.78712595, 44.6995, -3963426.7981, 3350882.1576, 3694865.5458, -1.517116, 1.714936, 326.649692, 0.000000, -0.001000, 0.001000, -0.14697200, -0.07807400, -0.04613500, 0.00048100000, 0.00101400000, -0.00017600000
273376.00, 2032, 35.62931853, 139.78712595, 44.6995, -3963426.7981, 3350882.1576, 3694865.5458, -1.518249, 1.714892, 326.649872, 0.001000, -0.003000, 0.004000, -0.02303700, -0.00904800, -0.17597800, -0.00004200000, 0.00116400000, 0.00055700000
273376.10, 2032, 35.62931853, 139.78712595, 44.6994, -3963426.7980, 3350882.1576, 3694865.5458, -1.525163, 1.713767, 326.649734, -0.007000, 0.001000, -0.003000, 0.19322700, 0.07045700, 0.18185300, -0.00237500000, -0.00190700000, -0.00078300000
273376.20, 2032, 35.62931853, 139.78712595, 44.6994, -3963426.7980, 3350882.1576, 3694865.5457, -1.529971, 1.713142, 326.648250, 0.001000, -0.001000, 0.001000, -0.18326200, -0.01508300, -0.11714900, 0.00095800000, 0.00079500000, 0.00029100000
273376.30, 2032, 35.62931853, 139.78712595, 44.6994, -3963426.7980, 3350882.1576, 3694865.5458, -1.530781, 1.714441, 326.649066, -0.000000, -0.003000, 0.002000, 0.10549900, -0.00233100, -0.11184900, -0.00083900000, 0.00040100000, 0.00022400000
273376.40, 2032, 35.62931853, 139.78712595, 44.6994, -3963426.7980, 3350882.1576, 3694865.5457, -1.532232, 1.713213, 326.648384, -0.004000, 0.003000, -0.005000, 0.08517800, 0.01529600, 0.17200200, -0.00045300000, -0.00237500000, -0.00076900000
273376.50, 2032, 35.62931853, 139.78712595, 44.6994, -3963426.7980, 3350882.1576, 3694865.5458, -1.531664, 1.714150, 326.648080, 0.003000, -0.001000, 0.001000, -0.16495200, -0.00006200, -0.16686400, 0.00179600000, 0.00105800000, 0.00080200000
273376.60, 2032, 35.62931853, 139.78712595, 44.6994, -3963426.7980, 3350882.1576, 3694865.5458, -1.532549, 1.713462, 326.649207, -0.003000, -0.000000, 0.000000, 0.18998100, 0.03869100, 0.02878600, -0.00152700000, -0.00112700000, -0.00035800000
273376.70, 2032, 35.62931853, 139.78712595, 44.6993, -3963426.7980, 3350882.1576, 3694865.5457, -1.531186, 1.710694, 326.648276, -0.001000, 0.001000, -0.002000, -0.06695200, -0.05192200, 0.13191000, 0.00033900000, -0.00047100000, -0.00041500000
273376.80, 2032, 35.62931853, 139.78712595, 44.6994, -3963426.7980, 3350882.1576, 3694865.5457, -1.528646, 1.712090, 326.649150, 0.005000, -0.002000, 0.002000, -0.14820000, 0.02058800, -0.17042700, 0.00215000000, 0.00146800000, 0.00094500000
273376.90, 2032, 35.62931853, 139.78712595, 44.6994, -3963426.7980, 3350882.1576, 3694865.5457, -1.528364, 1.712958, 326.649443, -0.004000, -0.001000, -0.000000, 0.26639200, 0.07249800, 0.13646700, -0.00207900000, -0.00084200000, -0.00066400000
273377.00, 2032, 35.62931853, 139.78712595, 44.6993, -3963426.7980, 3350882.1575, 3694865.5457, -1.526708, 1.710959, 326.649055, 0.001000, 0.001000, 0.001000, -0.14500600, -0.06965700, 0.00483000, 0.00095900000, 0.00067900000, 0.00008700000
273377.10, 2032, 35.62931853, 139.78712595, 44.6993, -3963426.7979, 3350882.1574, 3694865.5457, -1.520026, 1.708080, 326.650928, 0.004000, -0.001000, 0.003000, -0.07946600, 0.01622000, -0.15141600, 0.00183000000, 0.00141500000, 0.00052500000
273377.20, 2032, 35.62931853, 139.78712595, 44.6992, -3963426.7979, 3350882.1575, 3694865.5457, -1.519443, 1.707242, 326.649614, -0.004000, -0.001000, -0.003000, 0.19683800, 0.04584800, 0.21381700, -0.00155300000, -0.00073800000, -0.00087700000
273377.30, 2032, 35.62931853, 139.78712595, 44.6994, -3963426.7980, 3350882.1575, 3694865.5457, -1.524449, 1.711663, 326.649179, -0.000000, -0.002000, 0.001000, -0.15242100, -0.03409900, -0.13085700, 0.00005700000, 0.00125200000, 0.00053400000
273377.40, 2032, 35.62931853, 139.78712595, 44.6994, -3963426.7980, 3350882.1575, 3694865.5457, -1.529885, 1.711428, 326.649484, -0.000000, -0.002000, 0.002000, 0.04820200, 0.01513800, -0.10369100, -0.00069100000, 0.00019800000, -0.00002000000
273377.50, 2032, 35.62931853, 139.78712595, 44.6994, -3963426.7980, 3350882.1576, 3694865.5457, -1.529403, 1.711427, 326.647987, -0.002000, 0.001000, -0.005000, 0.10290500, 0.01618500, 0.20987600, -0.00046700000, -0.00130300000, -0.00059500000
273377.60, 2032, 35.62931853, 139.78712595, 44.6995, -3963426.7981, 3350882.1576, 3694865.5458, -1.529021, 1.715987, 326.648715, 0.004000, -0.001000, -0.000000, -0.17180300, 0.00952300, -0.15532600, 0.00202700000, 0.00106700000, 0.00074900000
273377.70, 2032, 35.62931853, 139.78712595, 44.6995, -3963426.7981, 3350882.1576, 3694865.5458, -1.527990, 1.717058, 326.648517, -0.004000, -0.001000, 0.002000, 0.20709900, 0.02591300, 0.01595600, -0.00210400000, -0.00064700000, -0.00060200000
273377.80, 2032, 35.62931853, 139.78712595, 44.6994, -3963426.7980, 3350882.1576, 3694865.5457, -1.531377, 1.712364, 326.648303, -0.002000, 0.002000, -0.003000, -0.05238000, -0.06853900, 0.17335000, 0.00014400000, -0.00080800000, 0.00003300000
273377.90, 2032, 35.62931853, 139.78712595, 44.6994, -3963426.7980, 3350882.1576, 3694865.5458, -1.524879, 1.713281, 326.649898, 0.006000, -0.003000, 0.005000, -0.16516800, 0.05802900, -0.19959700, 0.00217700000, 0.00240600000, 0.00065900000
273378.00, 2032, 35.62931853, 139.78712595, 44.6994, -3963426.7980, 3350882.1576, 3694865.5458, -1.528984, 1.714453, 326.647962, -0.004000, -0.002000, -0.001000, 0.25206200, 0.03726300, 0.21005000, -0.00247600000, -0.00050600000, -0.00064300000
273378.10, 2032, 35.62931853, 139.78712595, 44.6995, -3963426.7981, 3350882.1576, 3694865.5458, -1.526861, 1.716928, 326.649376, 0.001000, -0.002000, 0.002000, -0.11665200, -0.05078500, -0.07795000, 0.00035100000, 0.00261100000, 0.00013900000
273378.20, 2032, 35.62931853, 139.78712595, 44.6995, -3963426.7981, 3350882.1576, 3694865.5458, -1.525979, 1.716390, 326.649026, 0.003000, -0.002000, 0.005000, -0.04622600, -0.01755900, -0.15552300, 0.00111200000, 0.00160900000, 0.00031600000
273378.30, 2032, 35.62931853, 139.78712595, 44.6994, -3963426.7980, 3350882.1576, 3694865.5457, -1.525251, 1.712820, 326.649114, -0.005000, 0.000000, -0.003000, 0.08863300, 0.01460400, 0.16535900, -0.00232600000, -0.00186300000, -0.00015800000
273378.40, 2032, 35.62931853, 139.78712595, 44.6994, -3963426.7980, 3350882.1576, 3694865.5458, -1.527039, 1.714415, 326.649300, -0.002000, -0.002000, -0.000000, -0.11655200, 0.02408900, -0.10057200, -0.00120800000, 0.00051200000, -0.00061400000
273378.50, 2032, 35.62931853, 139.78712595, 44.6995, -3963426.7981, 3350882.1577, 3694865.5458, -1.528508, 1.717808, 326.648170, 0.002000, -0.003000, 0.004000, -0.05598200, -0.08431000, -0.02619700, 0.00090500000, 0.00213800000, 0.00005300000
273378.60, 2032, 35.62931853, 139.78712595, 44.6995, -3963426.7981, 3350882.1576, 3694865.5458, -1.526887, 1.715558, 326.649400, 0.001000, 0.003000, -0.002000, 0.04274600, 0.03313100, 0.01517100, 0.00168300000, -0.00132200000, 0.00082500000
273378.70, 2032, 35.62931853, 139.78712595, 44.6994, -3963426.7980, 3350882.1576, 3694865.5458, -1.527080, 1.713871, 326.649335, -0.003000, 0.001000, -0.002000, 0.09620100, 0.02493600, 0.01227600, -0.00143500000, -0.00122900000, -0.00018100000
273378.80, 2032, 35.62931853, 139.78712595, 44.6995, -3963426.7981, 3350882.1576, 3694865.5458, -1.527698, 1.714796, 326.648981, -0.002000, -0.003000, 0.001000, -0.07589200, 0.01533100, -0.07516200, -0.00182100000, 0.00069300000, -0.00022500000
273378.90, 2032, 35.62931853, 139.78712595, 44.6995, -3963426.7981, 3350882.1576, 3694865.5458, -1.528657, 1.715545, 326.649447, -0.001000, 0.001000, -0.002000, -0.08416200, -0.01673500, -0.02471600, 0.00014500000, -0.00122000000, -0.00020800000
273379.00, 2032, 35.62931853, 139.78712595, 44.6995, -3963426.7981, 3350882.1576, 3694865.5458, -1.529072, 1.715609, 326.648617, 0.002000, -0.004000, 0.006000, -0.05505300, -0.04033700, 0.00699600, 0.00011300000, 0.00315900000, -0.00030100000
273379.10, 2032, 35.62931853, 139.78712595, 44.6995, -3963426.7981, 3350882.1576, 3694865.5458, -1.529012, 1.714971, 326.648761, 0.001000, 0.001000, -0.002000, 0.04403000, -0.00901600, 0.01875400, 0.00141500000, -0.00070100000, 0.00020200000
273379.20, 2032, 35.62931853, 139.78712595, 44.6995, -3963426.7981, 3350882.1576, 3694865.5458, -1.527371, 1.716172, 326.649369, 0.003000, -0.000000, -0.000000, -0.01345600, 0.00857900, 0.02618000, 0.00149000000, 0.00071300000, 0.00013500000
273379.30, 2032, 35.62931853, 139.78712595, 44.6995, -3963426.7981, 3350882.1576, 3694865.5458, -1.525743, 1.716522, 326.649020, 0.001000, 0.000000, -0.001000, 0.06796600, 0.02514200, -0.00773600, 0.00065200000, 0.00009600000, 0.00028500000
273379.40, 2032, 35.62931853, 139.78712595, 44.6995, -3963426.7981, 3350882.1576, 3694865.5458, -1.526918, 1.715378, 326.649599, -0.002000, 0.002000, -0.003000, 0.06529900, 0.02946100, -0.01790700, -0.00047700000, -0.00169900000, 0.00015900000
273379.50, 2032, 35.62931853, 139.78712595, 44.6994, -3963426.7980, 3350882.1576, 3694865.5458, -1.528413, 1.714391, 326.648890, -0.003000, 0.001000, -0.003000, -0.00608300, -0.00298900, 0.00147300, -0.00111100000, -0.00143100000, -0.00019900000
273379.60, 2032, 35.62931853, 139.78712595, 44.6995, -3963426.7981, 3350882.1576, 3694865.5458, -1.529260, 1.715403, 326.648926, -0.001000, -0.001000, 0.000000, -0.00507400, -0.01553800, -0.02756700, -0.00133600000, 0.00019300000, 0.00002000000
273379.70, 2032, 35.62931853, 139.78712595, 44.6995, -3963426.7981, 3350882.1576, 3694865.5458, -1.528070, 1.715193, 326.649369, -0.002000, 0.001000, -0.001000, 0.02533200, 0.00093000, -0.03270400, -0.00087200000, -0.00078600000, -0.00022300000
273379.80, 2032, 35.62931853, 139.78712595, 44.6995, -3963426.7980, 3350882.1576, 3694865.5458, -1.527629, 1.714549, 326.648915, -0.002000, 0.000000, -0.001000, -0.04819700, -0.01810200, -0.00315400, -0.00039200000, -0.00089500000, -0.00018000000
273379.90, 2032, 35.62931853, 139.78712595, 44.6995, -3963426.7981, 3350882.1576, 3694865.5458, -1.527651, 1.714787, 326.649254, -0.000000, -0.002000, 0.001000, -0.09069600, -0.01660800, 0.01922100, -0.00044400000, 0.00077800000, -0.00011500000
273380.00, 2032, 35.62931853, 139.78712595, 44.6995, -3963426.7981, 3350882.1576, 3694865.5458, -1.528539, 1.715654, 326.648917, 0.002000, -0.003000, 0.003000, -0.07118100, -0.01960700, -0.00147600, 0.00029300000, 0.00217200000, -0.00021400000
273380.10, 2032, 35.62931853, 139.78712595, 44.6995, -3963426.7981, 3350882.1576, 3694865.5458, -1.527752, 1.715678, 326.648859, 0.002000, -0.002000, 0.003000, -0.00622600, -0.00221400, -0.00652300, 0.00067800000, 0.00189700000, 0.00009000000
273380.20, 2032, 35.62931853, 139.78712595, 44.6995, -3963426.7981, 3350882.1576, 3694865.5458, -1.527354, 1.715640, 326.649195, 0.002000, 0.001000, -0.001000, 0.03187200, 0.01121600, 0.01322900, 0.00138100000, -0.00018600000, -0.00003600000
273380.30, 2032, 35.62931853, 139.78712595, 44.6995, -3963426.7981, 3350882.1576, 3694865.5458, -1.527187, 1.715431, 326.648872, 0.002000, 0.001000, -0.002000, 0.01820400, 0.00892500, 0.04197400, 0.00150400000, -0.00037200000, 0.00005700000
273380.40, 2032, 35.62931853, 139.78712595, 44.6995, -3963426.7981, 3350882.1576, 3694865.5458, -1.527190, 1.715744, 326.648986, 0.002000, 0.000000, -0.001000, 0.01719100, 0.00969000, 0.02749000, 0.00131800000, 0.00022900000, 0.00029000000
273380.50, 2032, 35.62931853, 139.78712595, 44.6995, -3963426.7981, 3350882.1576, 3694865.5458, -1.526324, 1.716124, 326.649193, 0.003000, 0.000000, 0.000000, 0.03515900, 0.02102200, 0.01309800, 0.00125900000, 0.00079800000, 0.00027900000
273380.60, 2032, 35.62931853, 139.78712595, 44.6995, -3963426.7981, 3350882.1576, 3694865.5458, -1.525630, 1.715765, 326.649102, 0.002000, 0.000000, -0.000000, 0.05562100, 0.01864000, -0.01527300, 0.00068000000, 0.00035000000, 0.00034700000
273380.70, 2032, 35.62931853, 139.78712595, 44.6995, -3963426.7981, 3350882.1576, 3694865.5458, -1.525750, 1.715704, 326.649294, 0.001000, 0.000000, -0.001000, 0.05871700, 0.02979600, -0.03536100, 0.00020700000, -0.00000800000, 0.00022600000
273380.80, 2032, 35.62931853, 139.78712595, 44.6995, -3963426.7981, 3350882.1576, 3694865.5458, -1.526539, 1.715453, 326.648999, -0.001000, 0.001000, -0.002000, 0.05001500, 0.01664900, -0.04165500, -0.00038300000, -0.00116000000, 0.00014100000
273380.90, 2032, 35.62931853, 139.78712595, 44.6995, -3963426.7981, 3350882.1576, 3694865.5458, -1.526593, 1.715290, 326.649192, -0.001000, 0.002000, -0.003000, 0.02236700, -0.00251300, -0.03777600, -0.00087000000, -0.00186100000, 0.00015900000
273381.00, 2032, 35.62931853, 139.78712595, 44.6995, -3963426.7981, 3350882.1576, 3694865.5458, -1.526759, 1.715225, 326.649155, -0.002000, 0.002000, -0.003000, 0.00335800, -0.01364200, -0.02018000, -0.00107800000, -0.00175200000, 0.00004500000
273381.10, 2032, 35.62931853, 139.78712595, 44.6995, -3963426.7981, 3350882.1576, 3694865.5458, -1.526386, 1.715033, 326.649321, -0.002000, 0.002000, -0.002000, -0.01756300, -0.01242100, -0.00809000, -0.00127700000, -0.00162000000, 0.00006300000
273381.20, 2032, 35.62931853, 139.78712595, 44.6994, -3963426.7981, 3350882.1575, 3694865.5458, -1.526562, 1.714466, 326.649279, -0.001000, -0.000000, -0.001000, -0.03115100, -0.02627300, -0.01867800, -0.00160000000, -0.00055600000, -0.00005500000
273381.30, 2032, 35.62931853, 139.78712595, 44.6994, -3963426.7981, 3350882.1574, 3694865.5458, -1.527381, 1.714972, 326.648850, -0.001000, -0.001000, 0.000000, -0.01007500, -0.01802800, -0.04007000, -0.00178600000, -0.00010300000, -0.00007000000
273381.40, 2032, 35.62931853, 139.78712595, 44.6993, -3963426.7981, 3350882.1574, 3694865.5458, -1.528892, 1.719986, 326.648907, -0.002000, 0.001000, 0.001000, 0.10546700, -0.02964100, 0.03165700, -0.00159700000, 0.00245900000, 0.00077800000
273381.50, 2032, 35.62931854, 139.78712595, 44.6994, -3963426.7974, 3350882.1575, 3694865.5465, -1.531746, 1.736418, 326.653440, -0.013000, 0.017000, -0.000000, 0.11711400, 0.05343000, -0.10501300, -0.00201000000, 0.00070700000, 0.00024800000
273381.60, 2032, 35.62931856, 139.78712593, 44.6994, -3963426.7953, 3350882.1578, 3694865.5483, -1.540496, 1.732315, 326.649369, -0.022000, 0.030000, -0.001000, 0.10129500, 0.00128900, 0.00514700, -0.00183600000, -0.00235200000, -0.00084900000
273381.70, 2032, 35.62931859, 139.78712590, 44.6994, -3963426.7926, 3350882.1583, 3694865.5509, -1.545754, 1.734286, 326.650674, -0.025000, 0.038000, -0.002000, 0.09778900, 0.01341200, 0.00449700, -0.00127000000, -0.00015800000, 0.00094400000
273381.80, 2032, 35.62931862, 139.78712587, 44.6995, -3963426.7891, 3350882.1588, 3694865.5543, -1.552758, 1.737896, 326.657401, -0.030000, 0.047000, 0.002000, -0.01035500, 0.00612000, -0.02258100, -0.00119500000, 0.00034900000, 0.00070100000
273381.90, 2032, 35.62931867, 139.78712584, 44.6994, -3963426.7846, 3350882.1593, 3694865.5585, -1.553754, 1.734678, 326.657570, -0.037000, 0.056000, 0.001000, 0.02692600, -0.00137100, -0.00354800, -0.00027000000, -0.00006500000, -0.00073100000
273382.00, 2032, 35.62931872, 139.78712579, 44.6996, -3963426.7795, 3350882.1603, 3694865.5634, -1.561347, 1.738535, 326.655596, -0.042000, 0.060000, 0.005000, -0.00752500, -0.03567600, -0.03087500, -0.00175500000, 0.00252900000, 0.00015700000
273382.10, 2032, 35.62931878, 139.78712574, 44.6997, -3963426.7737, 3350882.1612, 3694865.5689, -1.569532, 1.740499, 326.661059, -0.046000, 0.070000, 0.004000, 0.01815900, -0.00330600, -0.03516100, -0.00123400000, 0.00160600000, 0.00085800000
273382.20, 2032, 35.62931885, 139.78712569, 44.6998, -3963426.7672, 3350882.1621, 3694865.5750, -1.574108, 1.740158, 326.664508, -0.050000, 0.077000, 0.004000, 0.00737300, 0.00008700, -0.04277700, -0.00052900000, 0.00106600000, -0.00012900000
273382.30, 2032, 35.62931892, 139.78712563, 44.6999, -3963426.7604, 3350882.1630, 3694865.5817, -1.575951, 1.740098, 326.666163, -0.052000, 0.082000, 0.005000, 0.01382000, -0.04194200, -0.03427200, -0.00043100000, 0.00200600000, 0.00046400000
273382.40, 2032, 35.62931900, 139.78712558, 44.7000, -3963426.7531, 3350882.1639, 3694865.5889, -1.578456, 1.744458, 326.673701, -0.057000, 0.091000, 0.002000, 0.16720000, -0.03979600, 0.01099800, -0.00056800000, 0.00150100000, 0.00164600000
273382.50, 2032, 35.62931909, 139.78712551, 44.7001, -3963426.7448, 3350882.1651, 3694865.5969, -1.583183, 1.754673, 326.681324, -0.065000, 0.101000, 0.008000, 0.22617900, 0.02480000, 0.12137000, -0.00118400000, 0.00532000000, 0.00112600000
273382.60, 2032, 35.62931920, 139.78712542, 44.7004, -3963426.7351, 3350882.1665, 3694865.6064, -1.592176, 1.773004, 326.687598, -0.083000, 0.128000, 0.005000, 0.48996600, 0.03600500, 0.10475300, -0.00193700000, 0.00488500000, 0.00145000000
273382.70, 2032, 35.62931933, 139.78712532, 44.7010, -3963426.7229, 3350882.1684, 3694865.6187, -1.598813, 1.809269, 326.703088, -0.101000, 0.159000, 0.023000, 0.60035900, -0.07844500, -0.19557700, -0.00127700000, 0.01560100000, 0.00435400000
273382.80, 2032, 35.62931951, 139.78712519, 44.7019, -3963426.7065, 3350882.1708, 3694865.6356, -1.594884, 1.853375, 326.729549, -0.148000, 0.241000, 0.005000, 0.90866500, -0.05477100, 0.07614200, 0.00094500000, 0.00309600000, 0.00505300000
273382.90, 2032, 35.62931976, 139.78712500, 44.7033, -3963426.6841, 3350882.1743, 3694865.6587, -1.602404, 1.892994, 326.759525, -0.199000, 0.315000, 0.017000, 1.03236600, -0.06231700, -0.03716000, -0.00255600000, 0.00643000000, 0.00590800000
273383.00, 2032, 35.62932008, 139.78712474, 44.7046, -3963426.6539, 3350882.1790, 3694865.6889, -1.624218, 1.908739, 326.801723, -0.265000, 0.413000, 0.010000, 1.15825500, -0.05885200, -0.05283300, -0.00489800000, -0.00213900000, 0.00928200000
273383.10, 2032, 35.62932050, 139.78712441, 44.7059, -3963426.6151, 3350882.1850, 3694865.7270, -1.668507, 1.906351, 326.867606, -0.333000, 0.510000, 0.018000, 1.21265100, 0.06777400, -0.00759600, -0.01215900000, 0.00027500000, 0.01266600000
273383.20, 2032, 35.62932101, 139.78712401, 44.7074, -3963426.5670, 3350882.1926, 3694865.7741, -1.737158, 1.890403, 326.941986, -0.402000, 0.626000, 0.015000, 1.30043900, 0.05132600, -0.13412700, -0.01114300000, -0.00567900000, 0.01268600000
273383.30, 2032, 35.62932162, 139.78712353, 44.7089, -3963426.5099, 3350882.2014, 3694865.8295, -1.822335, 1.849447, 327.019278, -0.465000, 0.722000, 0.017000, 1.09054700, -0.07120700, 0.13188100, -0.01492800000, -0.00851200000, 0.01580900000
273383.40, 2032, 35.62932230, 139.78712300, 44.7105, -3963426.4461, 3350882.2102, 3694865.8923, -1.873136, 1.818235, 327.132166, -0.495000, 0.797000, 0.022000, 0.79756100, 0.09450900, 0.06855200, -0.00691000000, -0.00133000000, 0.02236700000
273383.50, 2032, 35.62932305, 139.78712243, 44.7122, -3963426.3768, 3350882.2190, 3694865.9612, -1.910041, 1.807410, 327.250399, -0.534000, 0.879000, 0.014000, 0.75144000, 0.23352900, -0.07138900, -0.00563900000, -0.00634300000, 0.01779300000
273383.60, 2032, 35.62932387, 139.78712183, 44.7134, -3963426.3018, 3350882.2273, 3694866.0357, -1.923720, 1.765114, 327.351221, -0.563000, 0.947000, 0.003000, 0.44192400, -0.08794100, 0.03363800, 0.00101800000, -0.01563200000, 0.01888300000
273383.70, 2032, 35.62932474, 139.78712120, 44.7145, -3963426.2231, 3350882.2351, 3694866.1143, -1.919509, 1.701987, 327.487542, -0.579000, 0.978000, 0.011000, 0.35164800, -0.01889600, -0.03012300, -0.00093400000, -0.01320600000, 0.02676400000
273383.80, 2032, 35.62932563, 139.78712056, 44.7158, -3963426.1425, 3350882.2430, 3694866.1953, -1.918457, 1.637838, 327.643304, -0.582000, 0.997000, 0.016000, 0.05225200, 0.19177100, 0.03002000, 0.00124500000, -0.01069900000, 0.02519800000
273383.90, 2032, 35.62932653, 139.78711992, 44.7171, -3963426.0616, 3350882.2499, 3694866.2777, -1.884840, 1.587743, 327.774480, -0.566000, 1.006000, 0.021000, -0.03856100, 0.15115600, 0.03589700, 0.00824600000, -0.00414200000, 0.02150200000
273384.00, 2032, 35.62932744, 139.78711931, 44.7188, -3963425.9820, 3350882.2551, 3694866.3607, -1.819501, 1.565030, 327.910705, -0.541000, 1.013000, 0.018000, -0.02830000, -0.05112500, -0.02800200, 0.01503100000, -0.00384800000, 0.02681000000
273384.10, 2032, 35.62932835, 139.78711872, 44.7203, -3963425.9034, 3350882.2588, 3694866.4436, -1.707148, 1.552868, 328.089222, -0.537000, 1.007000, 0.014000, -0.10048200, -0.09648700, 0.13118100, 0.01807000000, -0.00260400000, 0.03300500000
273384.20, 2032, 35.62932925, 139.78711812, 44.7217, -3963425.8247, 3350882.2635, 3694866.5256, -1.643853, 1.539323, 328.255966, -0.552000, 0.997000, 0.015000, -0.07955500, 0.13947200, 0.01793200, 0.00470100000, -0.00349100000, 0.02521300000
273384.30, 2032, 35.62933014, 139.78711751, 44.7236, -3963425.7459, 3350882.2696, 3694866.6074, -1.628103, 1.541166, 328.387457, -0.558000, 0.992000, 0.026000, 0.22136200, 0.03155800, 0.02710900, -0.00058200000, 0.00226800000, 0.02373800000
273384.40, 2032, 35.62933105, 139.78711689, 44.7260, -3963425.6668, 3350882.2759, 3694866.6901, -1.626798, 1.559570, 328.554862, -0.564000, 1.014000, 0.025000, 0.14436800, -0.16245000, -0.07617600, -0.00049500000, 0.00140700000, 0.03355800000
273384.50, 2032, 35.62933198, 139.78711626, 44.7291, -3963425.5859, 3350882.2823, 3694866.7759, -1.631139, 1.587356, 328.754442, -0.580000, 1.054000, 0.043000, 0.89128500, 0.22706800, 0.04515000, -0.00164600000, 0.00922800000, 0.03459400000
273384.60, 2032, 35.62933297, 139.78711560, 44.7321, -3963425.5004, 3350882.2882, 3694866.8668, -1.619122, 1.620807, 328.944838, -0.614000, 1.141000, 0.028000, 0.89673100, 0.06760900, 0.22577900, 0.00214700000, 0.00452700000, 0.03257500000
273384.70, 2032, 35.62933404, 139.78711490, 44.7348, -3963425.4085, 3350882.2932, 3694866.9648, -1.575301, 1.663095, 329.154847, -0.655000, 1.236000, 0.028000, 1.16509800, -0.15354900, -0.06286300, 0.00745900000, 0.00625900000, 0.04263500000
273384.80, 2032, 35.62933520, 139.78711415, 44.7374, -3963425.3085, 3350882.2977, 3694867.0718, -1.523006, 1.681088, 329.419505, -0.702000, 1.362000, 0.032000, 1.15199400, 0.36230200, -0.65661500, 0.01451400000, -0.00202000000, 0.04516600000
273384.90, 2032, 35.62933649, 139.78711334, 44.7406, -3963425.1993, 3350882.3022, 3694867.1897, -1.463724, 1.589500, 329.643807, -0.770000, 1.502000, 0.034000, 1.33304300, 0.14094700, -0.00864100, 0.00980200000, -0.02882400000, 0.03697400000
273385.00, 2032, 35.62933787, 139.78711247, 44.7446, -3963425.0831, 3350882.3063, 3694867.3167, -1.394878, 1.496864, 329.908008, -0.799000, 1.574000, 0.042000, 1.09496400, -0.26426600, 0.57331200, 0.01050500000, -0.00727700000, 0.05451900000
273385.10, 2032, 35.62933932, 139.78711157, 44.7480, -3963424.9609, 3350882.3100, 3694867.4493, -1.332495, 1.507740, 330.256270, -0.844000, 1.640000, 0.032000, 0.99867200, 0.44016400, 0.17620400, 0.00182600000, 0.00701800000, 0.06232900000
273385.20, 2032, 35.62934083, 139.78711061, 44.7496, -3963424.8310, 3350882.3145, 3694867.5865, -1.365200, 1.547250, 330.597663, -0.895000, 1.709000, 0.013000, 0.89085100, -0.45346800, 0.72433000, -0.00931100000, 0.01387800000, 0.06408200000
273385.30, 2032, 35.62934240, 139.78710960, 44.7519, -3963424.6965, 3350882.3200, 3694867.7287, -1.433930, 1.684369, 330.988178, -0.939000, 1.759000, 0.037000, 0.75029600, 0.71573900, -0.74993800, -0.02881100000, 0.02346800000, 0.06397900000
273385.40, 2032, 35.62934403, 139.78710854, 44.7554, -3963424.5563, 3350882.3268, 3694867.8781, -1.603449, 1.711818, 331.296383, -0.966000, 1.864000, 0.044000, 0.53565500, 0.18390600, -0.20325100, -0.02470900000, -0.00974400000, 0.04910100000
273385.50, 2032, 35.62934574, 139.78710749, 44.7594, -3963424.4127, 3350882.3302, 3694868.0348, -1.646025, 1.638152, 331.594189, -0.941000, 1.941000, 0.041000, 0.44173400, 0.13469700, -0.12990900, 0.00430300000, -0.01686900000, 0.05628700000
273385.60, 2032, 35.62934751, 139.78710646, 44.7639, -3963424.2681, 3350882.3299, 3694868.1969, -1.601460, 1.582749, 331.939711, -0.924000, 1.990000, 0.049000, 0.42726600, 0.06349600, 0.29873000, 0.01023900000, -0.00647200000, 0.06358100000
273385.70, 2032, 35.62934932, 139.78710545, 44.7681, -3963424.1216, 3350882.3269, 3694868.3629, -1.503686, 1.591852, 332.326369, -0.931000, 2.037000, 0.041000, 0.74446200, 0.22783300, 0.05465000, 0.01513800000, 0.00637000000, 0.06803300000
273385.80, 2032, 35.62935119, 139.78710440, 44.7715, -3963423.9704, 3350882.3234, 3694868.5329, -1.436799, 1.628327, 332.691924, -0.970000, 2.102000, 0.033000, 0.62589200, 0.15446800, -0.02524000, 0.00629600000, 0.00247800000, 0.06072300000
273385.90, 2032, 35.62935311, 139.78710331, 44.7746, -3963423.8138, 3350882.3202, 3694868.7079, -1.410994, 1.637817, 333.030685, -1.003000, 2.165000, 0.036000, 0.77777500, 0.07396700, -0.03229600, 0.00069100000, 0.00036900000, 0.05753200000
273386.00, 2032, 35.62935508, 139.78710219, 44.7788, -3963423.6538, 3350882.3174, 3694868.8882, -1.397650, 1.677577, 333.347527, -1.020000, 2.223000, 0.047000, 0.87948700, 0.32373800, 0.09307300, 0.00521700000, 0.00710900000, 0.05323300000
273386.10, 2032, 35.62935711, 139.78710105, 44.7832, -3963423.4896, 3350882.3139, 3694869.0740, -1.358629, 1.721173, 333.617055, -1.047000, 2.290000, 0.047000, 0.38035800, 0.27395600, -0.16821700, 0.00648100000, 0.00652400000, 0.04065000000
273386.20, 2032, 35.62935921, 139.78709987, 44.7874, -3963423.3200, 3350882.3101, 3694869.2653, -1.326416, 1.732233, 333.815244, -1.087000, 2.359000, 0.047000, 0.64531500, 0.12985900, -0.05654000, 0.00355600000, -0.00066600000, 0.02962200000
273386.30, 2032, 35.62936135, 139.78709867, 44.7922, -3963423.1467, 3350882.3062, 3694869.4616, -1.256095, 1.761569, 333.973087, -1.095000, 2.411000, 0.049000, 0.70046800, 0.05996300, -0.00842900, 0.01483600000, 0.00671500000, 0.02650600000
273386.40, 2032, 35.62936354, 139.78709743, 44.7978, -3963422.9697, 3350882.3033, 3694869.6624, -1.235151, 1.786813, 334.110443, -1.147000, 2.459000, 0.067000, 0.91661800, 0.05643200, -0.05991200, -0.00390100000, 0.00072300000, 0.02117700000
273386.50, 2032, 35.62936578, 139.78709615, 44.8035, -3963422.7880, 3350882.3015, 3694869.8674, -1.224873, 1.787132, 334.226351, -1.173000, 2.511000, 0.052000, 0.59136200, 0.06692100, 0.23173800, 0.00689800000, -0.00063000000, 0.01944800000
273386.60, 2032, 35.62936806, 139.78709484, 44.8088, -3963422.6020, 3350882.3002, 3694870.0759, -1.232330, 1.800291, 334.321264, -1.208000, 2.547000, 0.063000, 0.42511200, 0.11140100, -0.05620500, -0.00943700000, 0.00522300000, 0.01378000000
273386.70, 2032, 35.62937038, 139.78709350, 44.8139, -3963422.4123, 3350882.2985, 3694870.2884, -1.246460, 1.804468, 334.378757, -1.215000, 2.604000, 0.055000, 0.33364300, 0.00160100, -0.07307700, 0.00420400000, 0.00216300000, 0.00781200000
273386.80, 2032, 35.62937274, 139.78709215, 44.8196, -3963422.2202, 3350882.2961, 3694870.5049, -1.199750, 1.832706, 334.420523, -1.237000, 2.643000, 0.062000, 0.14728500, -0.13990400, -0.10381600, 0.00556300000, 0.00580500000, 0.00640000000
273386.90, 2032, 35.62937515, 139.78709077, 44.8254, -3963422.0243, 3350882.2945, 3694870.7250, -1.172571, 1.843855, 334.427108, -1.268000, 2.700000, 0.052000, 0.41430700, -0.01444900, -0.15593900, 0.00947400000, -0.00396400000, -0.00476000000
273387.00, 2032, 35.62937759, 139.78708935, 44.8311, -3963421.8242, 3350882.2936, 3694870.9488, -1.127416, 1.831741, 334.363508, -1.296000, 2.742000, 0.056000, 0.45633600, -0.08225200, -0.04609900, 0.01279900000, -0.00529800000, -0.01506900000
273387.10, 2032, 35.62938007, 139.78708790, 44.8372, -3963421.6211, 3350882.2937, 3694871.1756, -1.089575, 1.828501, 334.283054, -1.331000, 2.766000, 0.057000, 0.35753300, -0.12095000, -0.05871300, 0.00308600000, -0.00339500000, -0.01248800000
273387.20, 2032, 35.62938257, 139.78708642, 44.8432, -3963421.4143, 3350882.2953, 3694871.4049, -1.102406, 1.806515, 334.214273, -1.365000, 2.799000, 0.062000, 0.31561900, -0.03483100, -0.08359200, -0.00380200000, -0.00604800000, -0.01235500000
273387.30, 2032, 35.62938510, 139.78708489, 44.8497, -3963421.2045, 3350882.2984, 3694871.6368, -1.141832, 1.785936, 334.150663, -1.397000, 2.829000, 0.059000, 0.25874300, -0.34203400, -0.10278500, -0.00564000000, -0.00767900000, -0.01061900000
273387.40, 2032, 35.62938766, 139.78708335, 44.8561, -3963420.9916, 3350882.3017, 3694871.8717, -1.170778, 1.762252, 334.070618, -1.413000, 2.859000, 0.074000, 0.18732700, 0.08921000, -0.14275800, -0.01081300000, -0.00108800000, -0.01842900000
273387.50, 2032, 35.62939026, 139.78708178, 44.8626, -3963420.7759, 3350882.3051, 3694872.1096, -1.216254, 1.740102, 333.961440, -1.425000, 2.901000, 0.065000, 0.57962400, -0.06212500, 0.12691000, -0.00166700000, -0.00349600000, -0.01742900000
273387.60, 2032, 35.62939289, 139.78708021, 44.8689, -3963420.5580, 3350882.3076, 3694872.3504, -1.189772, 1.718061, 333.873232, -1.433000, 2.932000, 0.072000, 0.43337500, 0.09525800, 0.27621300, 0.00628100000, 0.00061400000, -0.01475300000
273387.70, 2032, 35.62939555, 139.78707862, 44.8758, -3963420.3378, 3350882.3105, 3694872.5941, -1.160976, 1.708336, 333.791141, -1.457000, 2.968000, 0.069000, 0.49800700, 0.01293500, -0.10767700, 0.00268000000, -0.00330500000, -0.01418900000
273387.80, 2032, 35.62939823, 139.78707700, 44.8821, -3963420.1145, 3350882.3137, 3694872.8400, -1.144489, 1.686756, 333.699254, -1.473000, 3.002000, 0.058000, 0.16324800, -0.21499800, 0.21026500, 0.00959000000, -0.00465800000, -0.01693100000
273387.90, 2032, 35.62940094, 139.78707535, 44.8889, -3963419.8890, 3350882.3183, 3694873.0879, -1.137989, 1.700517, 333.605216, -1.517000, 3.008000, 0.070000, 0.38753400, -0.11615600, 0.22300300, -0.00806000000, 0.00364300000, -0.01578400000
273388.00, 2032, 35.62940366, 139.78707366, 44.8950, -3963419.6591, 3350882.3250, 3694873.3372, -1.185465, 1.691666, 333.492573, -1.552000, 3.041000, 0.060000, 0.23619200, 0.15127900, -0.18752200, -0.00536100000, -0.00257300000, -0.02430200000
273388.10, 2032, 35.62940641, 139.78707193, 44.9014, -3963419.4262, 3350882.3332, 3694873.5890, -1.231515, 1.671129, 333.338017, -1.576000, 3.067000, 0.070000, 0.53336900, -0.18359500, 0.04556000, -0.00810500000, -0.00220000000, -0.02709700000
273388.20, 2032, 35.62940918, 139.78707018, 44.9083, -3963419.1914, 3350882.3421, 3694873.8429, -1.292040, 1.655719, 333.192606, -1.588000, 3.089000, 0.070000, -0.00327100, -0.07279900, 0.11030200, -0.00480400000, -0.00072700000, -0.02307000000
273388.30, 2032, 35.62941197, 139.78706842, 44.9155, -3963418.9555, 3350882.3507, 3694874.0988, -1.291990, 1.679708, 333.069041, -1.592000, 3.098000, 0.086000, 0.20384400, -0.17258900, -0.04508900, 0.00189500000, 0.01433000000, -0.02080000000
273388.40, 2032, 35.62941479, 139.78706665, 44.9227, -3963418.7174, 3350882.3597, 3694874.3570, -1.291935, 1.694932, 332.932773, -1.615000, 3.144000, 0.074000, 0.34803700, 0.07181300, -0.12919300, 0.00296000000, 0.00037500000, -0.02569800000
273388.50, 2032, 35.62941763, 139.78706486, 44.9301, -3963418.4772, 3350882.3690, 3694874.6171, -1.274486, 1.723589, 332.798408, -1.633000, 3.145000, 0.083000, 0.03888300, -0.32672200, -0.13940500, 0.00070500000, 0.01275100000, -0.02133600000
273388.60, 2032, 35.62942048, 139.78706304, 44.9370, -3963418.2342, 3350882.3793, 3694874.8787, -1.268813, 1.724635, 332.674883, -1.661000, 3.178000, 0.077000, 0.15227200, -0.29348800, -0.24739500, 0.00040300000, 0.00128800000, -0.02156900000
273388.70, 2032, 35.62942335, 139.78706120, 44.9442, -3963417.9891, 3350882.3909, 3694875.1417, -1.273476, 1.731817, 332.557005, -1.679000, 3.189000, 0.072000, 0.22668900, -0.10766200, 0.22814700, 0.00140900000, 0.00603600000, -0.01884300000
273388.80, 2032, 35.62942623, 139.78705934, 44.9519, -3963417.7431, 3350882.4033, 3694875.4060, -1.267779, 1.785883, 332.432004, -1.691000, 3.208000, 0.078000, 0.40411800, -0.11409300, -0.07706700, 0.00122800000, 0.00961700000, -0.02428700000
273388.90, 2032, 35.62942914, 139.78705748, 44.9592, -3963417.4954, 3350882.4145, 3694875.6721, -1.223060, 1.813715, 332.298970, -1.680000, 3.240000, 0.065000, -0.37026100, 0.08010100, -0.18838000, 0.01753000000, -0.00091200000, -0.02045300000
273389.00, 2032, 35.62943206, 139.78705562, 44.9655, -3963417.2469, 3350882.4245, 3694875.9390, -1.126322, 1.790647, 332.183479, -1.683000, 3.237000, 0.063000, -0.30581500, -0.00529900, 0.17532600, 0.01625800000, -0.00631600000, -0.02058700000
273389.10, 2032, 35.62943496, 139.78705376, 44.9719, -3963416.9986, 3350882.4354, 3694876.2047, -1.051273, 1.756918, 332.069256, -1.691000, 3.212000, 0.062000, -0.02988400, 0.00691200, 0.04953600, 0.01218700000, -0.00685100000, -0.01956400000
273389.20, 2032, 35.62943784, 139.78705189, 44.9783, -3963416.7507, 3350882.4483, 3694876.4681, -1.018014, 1.709690, 331.955148, -1.706000, 3.183000, 0.067000, 0.00813800, -0.02785000, -0.05563400, 0.00320500000, -0.00694600000, -0.02128300000
273389.30, 2032, 35.62944069, 139.78705000, 44.9857, -3963416.5041, 3350882.4636, 3694876.7297, -1.020185, 1.688731, 331.832069, -1.713000, 3.156000, 0.078000, -0.05970600, 0.10519100, 0.17756100, -0.00170300000, -0.00260700000, -0.02118900000
273389.40, 2032, 35.62944353, 139.78704811, 44.9932, -3963416.2580, 3350882.4801, 3694876.9900, -1.051324, 1.663493, 331.707581, -1.714000, 3.139000, 0.081000, -0.34389500, -0.02972200, -0.22975200, -0.00507200000, -0.00135500000, -0.02188800000
273389.50, 2032, 35.62944637, 139.78704622, 45.0003, -3963416.0122, 3350882.4959, 3694877.2498, -1.059104, 1.615724, 331.582186, -1.705000, 3.147000, 0.069000, -0.17928800, 0.09570600, 0.00454800, 0.00224100000, -0.01182800000, -0.02239700000
273389.60, 2032, 35.62944920, 139.78704435, 45.0068, -3963415.7670, 3350882.5103, 3694877.5092, -0.993877, 1.554669, 331.450387, -1.682000, 3.142000, 0.068000, 0.03157700, 0.07468500, 0.38796200, 0.01617000000, -0.00520900000, -0.02360600000
273389.70, 2032, 35.62945202, 139.78704249, 45.0134, -3963415.5229, 3350882.5249, 3694877.7675, -0.926171, 1.539858, 331.324614, -1.694000, 3.121000, 0.064000, -0.03662700, -0.40403700, -0.11715600, 0.00997700000, -0.00203700000, -0.01999900000
273389.80, 2032, 35.62945483, 139.78704061, 45.0191, -3963415.2782, 3350882.5404, 3694878.0242, -0.868996, 1.515453, 331.216379, -1.710000, 3.115000, 0.054000, 0.10827900, -0.16091400, -0.00898300, 0.00687700000, -0.00646300000, -0.01878000000
273389.90, 2032, 35.62945763, 139.78703871, 45.0254, -3963415.0329, 3350882.5585, 3694878.2800, -0.879440, 1.491583, 331.107400, -1.736000, 3.113000, 0.051000, -0.00541300, -0.30984400, -0.27289200, -0.00196800000, -0.01425700000, -0.01812000000
273390.00, 2032, 35.62946042, 139.78703680, 45.0321, -3963414.7870, 3350882.5782, 3694878.5358, -0.923759, 1.461765, 330.998704, -1.746000, 3.088000, 0.078000, -0.26091200, -0.08958200, -0.05970400, -0.01194300000, -0.00066600000, -0.02101100000
273390.10, 2032, 35.62946321, 139.78703488, 45.0386, -3963414.5410, 3350882.5979, 3694878.7913, -0.942943, 1.437651, 330.869861, -1.737000, 3.096000, 0.062000, 0.52364200, -0.06690300, -0.06734700, -0.00019800000, -0.00438100000, -0.02361500000
273390.20, 2032, 35.62946600, 139.78703297, 45.0442, -3963414.2956, 3350882.6163, 3694879.0457, -0.910761, 1.416880, 330.744642, -1.729000, 3.088000, 0.043000, -0.04221500, -0.12427700, 0.11212000, 0.00316600000, -0.00729300000, -0.02081700000
273390.30, 2032, 35.62946876, 139.78703108, 45.0505, -3963414.0526, 3350882.6354, 3694879.2982, -0.875753, 1.470271, 330.633838, -1.714000, 3.049000, 0.067000, 0.08405200, -0.23857700, -0.22263100, 0.00733500000, 0.01228200000, -0.01736500000
273390.40, 2032, 35.62947151, 139.78702918, 45.0569, -3963413.8096, 3350882.6556, 3694879.5498, -0.851057, 1.515757, 330.535455, -1.737000, 3.055000, 0.060000, -0.21959900, -0.08381900, 0.03883500, 0.00062100000, 0.00332600000, -0.01681100000
273390.50, 2032, 35.62947426, 139.78702725, 45.0636, -3963413.5649, 3350882.6777, 3694879.8022, -0.869193, 1.532197, 330.432031, -1.768000, 3.067000, 0.065000, 0.43502700, -0.32815500, 0.12341200, -0.00764400000, -0.00164700000, -0.01932600000
273390.60, 2032, 35.62947702, 139.78702530, 45.0709, -3963413.3192, 3350882.7014, 3694880.0553, -0.922047, 1.552559, 330.310977, -1.771000, 3.068000, 0.069000, 0.35054500, -0.08014400, -0.14839900, -0.00389000000, 0.00101300000, -0.02088000000
273390.70, 2032, 35.62947978, 139.78702335, 45.0780, -3963413.0737, 3350882.7245, 3694880.3083, -0.915149, 1.592334, 330.191344, -1.752000, 3.057000, 0.078000, -0.02619200, -0.05378100, -0.03805800, 0.00501700000, 0.01495500000, -0.01870000000
273390.80, 2032, 35.62948254, 139.78702142, 45.0846, -3963412.8283, 3350882.7463, 3694880.5613, -0.863727, 1.648885, 330.098051, -1.747000, 3.075000, 0.058000, 0.48445100, 0.24238100, -0.08510800, 0.01384300000, 0.00709300000, -0.01380900000
273390.90, 2032, 35.62948531, 139.78701947, 45.0910, -3963412.5819, 3350882.7686, 3694880.8149, -0.829577, 1.705760, 329.992929, -1.772000, 3.090000, 0.050000, -0.25096800, -0.20199500, -0.01200300, 0.01058900000, 0.00233100000, -0.02102300000
273391.00, 2032, 35.62948810, 139.78701750, 45.0974, -3963412.3331, 3350882.7917, 3694881.0700, -0.777797, 1.723266, 329.875950, -1.795000, 3.092000, 0.084000, 0.15501100, -0.22204600, -0.29777900, 0.00514700000, 0.00759100000, -0.02014100000
273391.10, 2032, 35.62949091, 139.78701551, 45.1041, -3963412.0819, 3350882.8161, 3694881.3273, -0.723228, 1.691935, 329.771096, -1.821000, 3.136000, 0.062000, 0.27601300, -0.44504400, -0.05551200, 0.00961100000, -0.01182700000, -0.01721700000
273391.20, 2032, 35.62949373, 139.78701348, 45.1115, -3963411.8288, 3350882.8424, 3694881.5860, -0.735779, 1.690054, 329.663845, -1.845000, 3.126000, 0.084000, 0.17933200, -0.13011600, -0.19080300, -0.00444600000, 0.00972100000, -0.01978100000
273391.30, 2032, 35.62949657, 139.78701144, 45.1191, -3963411.5738, 3350882.8693, 3694881.8466, -0.715626, 1.717501, 329.555992, -1.861000, 3.179000, 0.060000, 0.35708000, -0.11066800, 0.05084700, 0.01191200000, -0.00270900000, -0.01745000000
273391.40, 2032, 35.62949945, 139.78700936, 45.1267, -3963411.3151, 3350882.8968, 3694882.1104, -0.706446, 1.705792, 329.445816, -1.900000, 3.222000, 0.068000, 0.42537900, 0.13691500, 0.18076300, 0.00324100000, -0.01345900000, -0.02131400000
273391.50, 2032, 35.62950237, 139.78700726, 45.1322, -3963411.0514, 3350882.9231, 3694882.3770, -0.632651, 1.613687, 329.325441, -1.913000, 3.252000, 0.055000, 0.10474300, -0.04527000, 0.19010300, 0.00965700000, -0.00925200000, -0.02259400000
273391.60, 2032, 35.62950530, 139.78700515, 45.1395, -3963410.7877, 3350882.9507, 3694882.6458, -0.565469, 1.626617, 329.215364, -1.913000, 3.259000, 0.081000, 0.14035700, -0.50616500, 0.09222700, 0.01814000000, 0.00907000000, -0.01468200000
273391.70, 2032, 35.62950825, 139.78700301, 45.1475, -3963410.5215, 3350882.9800, 3694882.9167, -0.510667, 1.645980, 329.122251, -1.979000, 3.299000, 0.064000, 0.49086500, 0.05753700, -0.27553000, -0.00055300000, -0.01222900000, -0.02003900000
273391.80, 2032, 35.62951124, 139.78700079, 45.1536, -3963410.2487, 3350883.0118, 3694883.1892, -0.551018, 1.572201, 328.975922, -2.022000, 3.331000, 0.046000, 0.93240600, -0.13537300, 0.41655900, -0.00286400000, -0.01646400000, -0.02636800000
273391.90, 2032, 35.62951423, 139.78699856, 45.1604, -3963409.9742, 3350883.0451, 3694883.4634, -0.576512, 1.555704, 328.841589, -2.052000, 3.357000, 0.039000, 0.37543600, -0.05833900, 0.23975000, -0.00500700000, -0.02039900000, -0.02100400000
273392.00, 2032, 35.62951725, 139.78699628, 45.1689, -3963409.6976, 3350883.0813, 3694883.7400, -0.674340, 1.552972, 328.723134, -2.089000, 3.368000, 0.069000, 0.34312000, -0.18819700, 0.36828200, -0.01843200000, -0.01462200000, -0.02153300000
273392.10, 2032, 35.62952028, 139.78699398, 45.1762, -3963409.4174, 3350883.1178, 3694884.0182, -0.741055, 1.556270, 328.593581, -2.092000, 3.375000, 0.068000, 0.12995700, 0.23607200, 0.07889600, -0.00779500000, 0.00961300000, -0.02640300000
273392.20, 2032, 35.62952336, 139.78699166, 45.1824, -3963409.1340, 3350883.1534, 3694884.2989, -0.757573, 1.556328, 328.446825, -2.103000, 3.417000, 0.084000, 0.30796800, -0.14198900, -0.55583600, 0.00175500000, 0.00717400000, -0.02413700000
273392.30, 2032, 35.62952647, 139.78698931, 45.1891, -3963408.8474, 3350883.1890, 3694884.5837, -0.732770, 1.483718, 328.302753, -2.131000, 3.475000, 0.079000, 0.73023200, -0.47670300, 0.12165900, 0.00925500000, -0.01204700000, -0.02347500000
273392.40, 2032, 35.62952960, 139.78698696, 45.1963, -3963408.5597, 3350883.2246, 3694884.8704, -0.651575, 1.469358, 328.218526, -2.143000, 3.493000, 0.042000, 0.71252000, -0.20292600, 0.29986200, 0.01700700000, -0.00655500000, -0.01017700000
273392.50, 2032, 35.62953274, 139.78698458, 45.2037, -3963408.2703, 3350883.2625, 3694885.1573, -0.641319, 1.535081, 328.147689, -2.175000, 3.464000, 0.094000, -0.91956600, -0.07482600, 0.07248200, -0.01185900000, 0.02545500000, -0.01555600000
273392.60, 2032, 35.62953589, 139.78698215, 45.2111, -3963407.9768, 3350883.3031, 3694885.4463, -0.704943, 1.579680, 328.033363, -2.213000, 3.497000, 0.103000, 1.02250900, -0.25455600, -0.39698600, -0.01018000000, 0.02062500000, -0.02072700000
273392.70, 2032, 35.62953907, 139.78697968, 45.2187, -3963407.6802, 3350883.3450, 3694885.7376, -0.747675, 1.580925, 327.923960, -2.263000, 3.562000, 0.054000, 0.27916100, -0.31086700, -0.11165100, -0.00898400000, -0.01767600000, -0.01756900000
273392.80, 2032, 35.62954228, 139.78697719, 45.2273, -3963407.3816, 3350883.3881, 3694886.0316, -0.804780, 1.596929, 327.827212, -2.257000, 3.540000, 0.122000, 0.19110900, -0.00413100, 0.08279400, -0.01475800000, 0.02403100000, -0.01768800000
273392.90, 2032, 35.62954551, 139.78697469, 45.2345, -3963407.0802, 3350883.4299, 3694886.3275, -0.802849, 1.603844, 327.724284, -2.275000, 3.631000, 0.031000, 0.63185600, 0.30871500, 0.09090900, 0.01128500000, -0.01594900000, -0.01895800000
273393.00, 2032, 35.62954877, 139.78697217, 45.2427, -3963406.7778, 3350883.4722, 3694886.6256, -0.787253, 1.660409, 327.611469, -2.273000, 3.590000, 0.119000, -0.22354000, -0.19610000, -0.08133900, 0.00107000000, 0.02852200000, -0.01957800000
273393.10, 2032, 35.62955204, 139.78696963, 45.2502, -3963406.4723, 3350883.5151, 3694886.9253, -0.757850, 1.641816, 327.499152, -2.329000, 3.661000, 0.053000, 0.41619100, -0.16916600, -0.29911500, 0.00143000000, -0.02361600000, -0.02053200000
273393.20, 2032, 35.62955532, 139.78696707, 45.2584, -3963406.1653, 3350883.5603, 3694887.2259, -0.761604, 1.612302, 327.392788, -2.326000, 3.625000, 0.101000, -0.07226400, -0.14956700, 0.13552800, 0.00134900000, 0.00920000000, -0.01547700000
273393.30, 2032, 35.62955860, 139.78696447, 45.2669, -3963405.8569, 3350883.6075, 3694887.5265, -0.811721, 1.589807, 327.303782, -2.371000, 3.651000, 0.069000, 0.12139600, 0.05951800, 0.13463500, -0.01089200000, -0.01412200000, -0.01742100000
273393.40, 2032, 35.62956189, 139.78696186, 45.2753, -3963405.5470, 3350883.6556, 3694887.8278, -0.876622, 1.567740, 327.182750, -2.362000, 3.641000, 0.097000, 0.47064100, 0.05011700, 0.03378800, -0.00771300000, 0.00788500000, -0.02332500000
273393.50, 2032, 35.62956519, 139.78695925, 45.2818, -3963405.2353, 3350883.7017, 3694888.1296, -0.849432, 1.522497, 327.059349, -2.366000, 3.690000, 0.042000, -0.18694600, -0.30213500, -0.02512100, 0.01401600000, -0.02027600000, -0.01784200000
273393.60, 2032, 35.62956850, 139.78695663, 45.2889, -3963404.9236, 3350883.7482, 3694888.4320, -0.823988, 1.482980, 326.982625, -2.375000, 3.656000, 0.089000, 0.48027000, -0.20327800, 0.03569000, -0.00201800000, 0.00220800000, -0.01175100000
273393.70, 2032, 35.62957180, 139.78695400, 45.2971, -3963404.6116, 3350883.7970, 3694888.7345, -0.831844, 1.455734, 326.913519, -2.401000, 3.659000, 0.089000, -0.06545800, 0.08446000, -0.02416300, -0.00763000000, -0.00448500000, -0.01385800000
273393.80, 2032, 35.62957510, 139.78695133, 45.3056, -3963404.2982, 3350883.8483, 3694889.0368, -0.913503, 1.418257, 326.810545, -2.428000, 3.673000, 0.067000, 0.35990200, -0.05052600, 0.14639800, -0.01226200000, -0.01450500000, -0.02040400000
273393.90, 2032, 35.62957840, 139.78694866, 45.3138, -3963403.9843, 3350883.8997, 3694889.3391, -0.967128, 1.401134, 326.712357, -2.414000, 3.648000, 0.097000, 0.10175700, 0.04423200, 0.26115900, -0.01221100000, 0.00911200000, -0.01280700000
273394.00, 2032, 35.62958169, 139.78694599, 45.3221, -3963403.6709, 3350883.9511, 3694889.6408, -1.052196, 1.436345, 326.667383, -2.415000, 3.658000, 0.067000, -0.20332500, -0.09458900, 0.27134900, -0.01009400000, 0.00386900000, -0.00394700000
273394.10, 2032, 35.62958498, 139.78694334, 45.3298, -3963403.3579, 3350884.0012, 3694889.9425, -1.082098, 1.508836, 326.643878, -2.402000, 3.665000, 0.073000, 0.27184500, -0.00937100, -0.31730500, -0.00582400000, 0.00904500000, -0.00472700000
273394.20, 2032, 35.62958829, 139.78694069, 45.3375, -3963403.0441, 3350884.0506, 3694890.2456, -1.110531, 1.531094, 326.624914, -2.403000, 3.681000, 0.086000, -0.02204000, -0.07248100, 0.00658100, -0.00132800000, 0.00289000000, -0.00238300000
273394.30, 2032, 35.62959162, 139.78693803, 45.3454, -3963402.7296, 3350884.0995, 3694890.5501, -1.102842, 1.523245, 326.617284, -2.408000, 3.706000, 0.064000, 0.16303400, -0.13081400, -0.04658200, 0.00563500000, -0.00925900000, 0.00060900000
273394.40, 2032, 35.62959495, 139.78693538, 45.3532, -3963402.4148, 3350884.1483, 3694890.8551, -1.085920, 1.525506, 326.627985, -2.404000, 3.689000, 0.089000, 0.23616200, 0.21625400, -0.12707400, -0.00047500000, 0.00739600000, 0.00254600000
273394.50, 2032, 35.62959828, 139.78693272, 45.3608, -3963402.0995, 3350884.1971, 3694891.1600, -1.086326, 1.541132, 326.633441, -2.408000, 3.697000, 0.080000, -0.04468300, 0.03847800, 0.01960800, 0.00007300000, 0.00488900000, 0.00124700000
273394.60, 2032, 35.62960162, 139.78693006, 45.3682, -3963401.7836, 3350884.2458, 3694891.4655, -1.070066, 1.530904, 326.646931, -2.416000, 3.715000, 0.070000, -0.11326100, 0.07847200, -0.05231400, 0.00397900000, -0.00787900000, 0.00191800000
273394.70, 2032, 35.62960497, 139.78692738, 45.3767, -3963401.4673, 3350884.2959, 3694891.7719, -1.104391, 1.492268, 326.645221, -2.433000, 3.710000, 0.089000, -0.08387300, -0.05757600, -0.07897900, -0.00922000000, -0.00916200000, -0.00126300000
273394.80, 2032, 35.62960831, 139.78692471, 45.3852, -3963401.1513, 3350884.3455, 3694892.0785, -1.106097, 1.464630, 326.649087, -2.402000, 3.703000, 0.092000, -0.09439900, 0.17403700, 0.21518200, 0.00434200000, 0.00528200000, 0.00287100000
273394.90, 2032, 35.62961165, 139.78692206, 45.3932, -3963400.8362, 3350884.3936, 3694892.3846, -1.082640, 1.470711, 326.669000, -2.398000, 3.715000, 0.066000, 0.12336200, 0.06132200, 0.22120400, 0.00632200000, -0.00226800000, 0.00430500000
273395.00, 2032, 35.62961499, 139.78691941, 45.4006, -3963400.5214, 3350884.4411, 3694892.6900, -1.060545, 1.491681, 326.688969, -2.398000, 3.704000, 0.072000, 0.23219400, 0.07398300, -0.06635300, 0.00188900000, 0.00249800000, 0.00258500000
273395.10, 2032, 35.62961833, 139.78691677, 45.4080, -3963400.2066, 3350884.4888, 3694892.9952, -1.039430, 1.491982, 326.698268, -2.389000, 3.699000, 0.080000, -0.68156800, 0.10939600, -0.02131100, 0.00672000000, 0.00147600000, 0.00119300000
273395.20, 2032, 35.62962166, 139.78691412, 45.4161, -3963399.8923, 3350884.5376, 3694893.3001, -1.064652, 1.479663, 326.702484, -2.406000, 3.690000, 0.080000, 0.29925000, -0.10194900, -0.08201800, -0.00682500000, -0.00534300000, 0.00094500000
273395.30, 2032, 35.62962497, 139.78691148, 45.4244, -3963399.5792, 3350884.5862, 3694893.6041, -1.074007, 1.483795, 326.714409, -2.376000, 3.665000, 0.095000, -0.41242100, 0.11016500, 0.13116300, 0.00248700000, 0.01209900000, 0.00236800000
273395.40, 2032, 35.62962828, 139.78690885, 45.4325, -3963399.2673, 3350884.6339, 3694893.9073, -1.066495, 1.498003, 326.721493, -2.380000, 3.683000, 0.060000, -0.00871700, 0.04762900, -0.12528900, 0.00188400000, -0.00981000000, -0.00012800000
273395.50, 2032, 35.62963159, 139.78690624, 45.4399, -3963398.9559, 3350884.6807, 3694894.2097, -1.045819, 1.486339, 326.726334, -2.352000, 3.640000, 0.099000, -0.60587600, 0.07102300, -0.05848600, 0.00089800000, 0.01115200000, 0.00181400000
273395.60, 2032, 35.62963487, 139.78690363, 45.4475, -3963398.6463, 3350884.7275, 3694894.5104, -1.031908, 1.459869, 326.746237, -2.356000, 3.631000, 0.084000, 0.42202100, 0.14384100, -0.16884800, -0.00165300000, -0.00383700000, 0.00302900000
273395.70, 2032, 35.62963814, 139.78690104, 45.4553, -3963398.3384, 3350884.7751, 3694894.8090, -1.060118, 1.430462, 326.757248, -2.352000, 3.621000, 0.057000, -0.15714100, 0.09007600, 0.06204700, -0.00335500000, -0.01633600000, 0.00121700000
273395.80, 2032, 35.62964137, 139.78689846, 45.4631, -3963398.0326, 3350884.8223, 3694895.1057, -1.075603, 1.419012, 326.766051, -2.324000, 3.584000, 0.075000, -0.08530700, 0.04721600, 0.00363800, -0.00122300000, -0.00171000000, 0.00222900000
273395.90, 2032, 35.62964459, 139.78689590, 45.4707, -3963397.7288, 3350884.8690, 3694895.4005, -1.102685, 1.408349, 326.779723, -2.308000, 3.561000, 0.078000, -0.17474700, 0.09129200, -0.05237200, -0.00209000000, -0.00164900000, 0.00228900000
273396.00, 2032, 35.62964780, 139.78689336, 45.4777, -3963397.4264, 3350884.9144, 3694895.6935, -1.097389, 1.377881, 326.788551, -2.287000, 3.556000, 0.058000, -0.10050100, -0.11584300, 0.03942700, 0.00858900000, -0.01023200000, 0.00029700000
273396.10, 2032, 35.62965099, 139.78689084, 45.4842, -3963397.1258, 3350884.9592, 3694895.9848, -1.080779, 1.331624, 326.791840, -2.284000, 3.524000, 0.067000, -0.31155000, -0.09736100, 0.09661900, -0.00562600000, -0.00905200000, 0.00063700000
273396.20, 2032, 35.62965415, 139.78688834, 45.4918, -3963396.8282, 3350885.0043, 3694896.2742, -1.088702, 1.321560, 326.800607, -2.250000, 3.497000, 0.071000, -0.36739000, 0.00867400, -0.02427300, 0.00597700000, -0.00090900000, 0.00313900000
273396.30, 2032, 35.62965728, 139.78688587, 45.4994, -3963396.5332, 3350885.0488, 3694896.5616, -1.069674, 1.340666, 326.820138, -2.240000, 3.459000, 0.084000, -0.31614100, 0.11406600, -0.09898200, -0.00526900000, 0.00701100000, 0.00271000000
273396.40, 2032, 35.62966040, 139.78688340, 45.5062, -3963396.2393, 3350885.0927, 3694896.8469, -1.072396, 1.336490, 326.830752, -2.218000, 3.460000, 0.058000, 0.14420700, 0.05837700, 0.16407100, 0.00898500000, -0.00254400000, 0.00260800000
273396.50, 2032, 35.62966350, 139.78688094, 45.5117, -3963395.9457, 3350885.1367, 3694897.1294, -1.121464, 1.288945, 326.841144, -2.227000, 3.420000, 0.060000, -0.12672900, -0.02593300, 0.13165700, -0.00874500000, -0.00295400000, 0.00165600000
273396.60, 2032, 35.62966656, 139.78687850, 45.5195, -3963395.6570, 3350885.1815, 3694897.4102, -1.136958, 1.340666, 326.851637, -2.190000, 3.387000, 0.080000, -0.45362400, 0.02485600, -0.07135600, 0.00105500000, 0.01085200000, 0.00178700000
273396.70, 2032, 35.62966961, 139.78687609, 45.5273, -3963395.3707, 3350885.2252, 3694897.6891, -1.157773, 1.388523, 326.855681, -2.165000, 3.376000, 0.071000, -0.01732700, 0.12560500, -0.01641800, 0.00762600000, 0.00568000000, 0.00132000000
273396.80, 2032, 35.62967263, 139.78687372, 45.5357, -3963395.0879, 3350885.2673, 3694897.9669, -1.096022, 1.468241, 326.862791, -2.144000, 3.340000, 0.088000, -0.54179700, 0.02270000, -0.17127300, -0.00194200000, 0.01381000000, 0.00185400000
273396.90, 2032, 35.62967564, 139.78687135, 45.5431, -3963394.8056, 3350885.3095, 3694898.2425, -1.107799, 1.476455, 326.868573, -2.138000, 3.327000, 0.074000, -0.37741800, -0.42208400, 0.08709100, 0.00602800000, 0.00046800000, 0.00076300000
273397.00, 2032, 35.62967863, 139.78686900, 45.5498, -3963394.5248, 3350885.3513, 3694898.5156, -1.084967, 1.487345, 326.878242, -2.129000, 3.293000, 0.062000, -0.21818700, 0.08358500, 0.07595900, 0.00031500000, 0.00493200000, -0.00022400000
273397.10, 2032, 35.62968157, 139.78686666, 45.5566, -3963394.2468, 3350885.3934, 3694898.7855, -1.077297, 1.574167, 326.862956, -2.100000, 3.251000, 0.068000, -0.30715800, -0.06789300, -0.61067000, 0.00359400000, 0.02084800000, -0.00058500000
273397.20, 2032, 35.62968450, 139.78686434, 45.5641, -3963393.9710, 3350885.4361, 3694899.0538, -1.112783, 1.620564, 326.856292, -2.108000, 3.240000, 0.083000, -0.41681900, 0.11497200, -0.19604900, -0.00941800000, -0.00039500000, -0.00286500000
273397.30, 2032, 35.62968741, 139.78686203, 45.5723, -3963393.6975, 3350885.4782, 3694899.3214, -1.102274, 1.615286, 326.843378, -2.075000, 3.232000, 0.073000, -0.34645200, 0.06951300, 0.07999600, 0.00940200000, -0.00584700000, -0.00179300000
273397.40, 2032, 35.62969031, 139.78685976, 45.5810, -3963393.4266, 3350885.5192, 3694899.5879, -1.048472, 1.588699, 326.831046, -2.062000, 3.213000, 0.082000, -0.32827600, -0.06675600, -0.12214200, 0.00243400000, -0.01442500000, -0.00368400000
273397.50, 2032, 35.62969319, 139.78685750, 45.5890, -3963393.1574, 3350885.5598, 3694899.8519, -1.019860, 1.536877, 326.825856, -2.031000, 3.160000, 0.084000, -0.50575800, -0.45697500, 0.20974800, 0.00746000000, 0.00489100000, 0.00279400000
273397.60, 2032, 35.62969603, 139.78685525, 45.5964, -3963392.8906, 3350885.6009, 3694900.1118, -1.018742, 1.549423, 326.835442, -2.040000, 3.134000, 0.059000, -0.08881200, 0.04078200, 0.15948500, -0.00498100000, -0.00323600000, -0.00064800000
273397.70, 2032, 35.62969882, 139.78685301, 45.6040, -3963392.6260, 3350885.6432, 3694900.3688, -1.079368, 1.584058, 326.819652, -2.023000, 3.097000, 0.073000, -0.42390000, 0.09921600, -0.04506100, -0.00792500000, 0.00282700000, -0.00380400000
273397.80, 2032, 35.62970161, 139.78685078, 45.6114, -3963392.3628, 3350885.6850, 3694900.6241, -1.124653, 1.565386, 326.791486, -2.007000, 3.081000, 0.079000, -0.45067700, -0.25080300, -0.20691500, -0.00632400000, -0.00561600000, -0.00478300000
273397.90, 2032, 35.62970438, 139.78684859, 45.6192, -3963392.1028, 3350885.7253, 3694900.8782, -1.119082, 1.547830, 326.779938, -1.971000, 3.064000, 0.071000, -0.21562500, -0.00153800, -0.21255500, 0.00840500000, -0.00607300000, -0.00041900000
273398.00, 2032, 35.62970713, 139.78684643, 45.6263, -3963391.8451, 3350885.7636, 3694901.1306, -1.054156, 1.519066, 326.775197, -1.945000, 3.046000, 0.064000, -0.45527100, 0.03344500, 0.25677200, 0.01221200000, -0.00747400000, -0.00208400000
273398.10, 2032, 35.62970986, 139.78684429, 45.6326, -3963391.5890, 3350885.8009, 3694901.3806, -0.992544, 1.480653, 326.763467, -1.930000, 3.013000, 0.060000, -0.16619800, -0.14634400, 0.08948100, 0.00965700000, -0.00407700000, -0.00136900000
273398.20, 2032, 35.62971256, 139.78684216, 45.6387, -3963391.3354, 3350885.8383, 3694901.6276, -0.936594, 1.474241, 326.759186, -1.923000, 2.987000, 0.048000, -0.28596100, -0.21994000, -0.18856100, 0.00831100000, -0.00869300000, 0.00019100000
273398.30, 2032, 35.62971523, 139.78684004, 45.6454, -3963391.0838, 3350885.8772, 3694901.8721, -0.947950, 1.459671, 326.760099, -1.919000, 2.941000, 0.076000, -0.25924400, 0.05007200, 0.08391400, -0.00753400000, -0.00076200000, -0.00139000000
273398.40, 2032, 35.62971787, 139.78683793, 45.6520, -3963390.8340, 3350885.9160, 3694902.1147, -0.958489, 1.424137, 326.750137, -1.901000, 2.935000, 0.054000, -0.36624000, 0.00742100, 0.17641000, 0.00301700000, -0.01182200000, -0.00216900000
273398.50, 2032, 35.62972050, 139.78683585, 45.6589, -3963390.5872, 3350885.9542, 3694902.3552, -0.959263, 1.426769, 326.742922, -1.873000, 2.891000, 0.073000, -0.48267900, -0.13083900, -0.02534200, -0.00059300000, 0.00595400000, -0.00028000000
273398.60, 2032, 35.62972310, 139.78683380, 45.6654, -3963390.3425, 3350885.9912, 3694902.5938, -0.920104, 1.432429, 326.748613, -1.852000, 2.884000, 0.062000, -0.24253200, -0.02958100, -0.20724300, 0.01040200000, -0.00171800000, 0.00154400000
273398.70, 2032, 35.62972569, 139.78683175, 45.6714, -3963390.0989, 3350886.0277, 3694902.8306, -0.903051, 1.420101, 326.744827, -1.844000, 2.857000, 0.059000, -0.30545700, 0.07008800, 0.23099500, 0.00136800000, 0.00224000000, -0.00242900000
273398.80, 2032, 35.62972825, 139.78682972, 45.6773, -3963389.8574, 3350886.0640, 3694903.0654, -0.873596, 1.439748, 326.730089, -1.828000, 2.841000, 0.055000, -0.33045700, -0.09693600, -0.10367900, 0.00927800000, 0.00023500000, -0.00179500000
273398.90, 2032, 35.62973080, 139.78682771, 45.6835, -3963389.6175, 3350886.1005, 3694903.2988, -0.855325, 1.443294, 326.726368, -1.825000, 2.811000, 0.070000, -0.22181900, 0.07084700, 0.09368100, -0.00229400000, 0.00290400000, -0.00048200000
273399.00, 2032, 35.62973333, 139.78682569, 45.6907, -3963389.3794, 3350886.1383, 3694903.5308, -0.889050, 1.489840, 326.716159, -1.829000, 2.798000, 0.080000, 0.53962800, 0.01380900, 0.14761800, -0.00764800000, 0.01947900000, -0.00312900000
273399.10, 2032, 35.62973587, 139.78682366, 45.6987, -3963389.1401, 3350886.1765, 3694903.7650, -0.894185, 1.631702, 326.700051, -1.851000, 2.856000, 0.074000, 0.77435400, 0.01436400, -0.22836700, 0.00273200000, 0.02347800000, -0.00190800000
273399.20, 2032, 35.62973847, 139.78682160, 45.7068, -3963388.8959, 3350886.2152, 3694904.0042, -0.900088, 1.731031, 326.689532, -1.896000, 2.922000, 0.076000, 0.49445500, -0.07407400, -0.16096500, -0.00040600000, 0.00411300000, -0.00175900000
273399.30, 2032, 35.62974113, 139.78681950, 45.7137, -3963388.6462, 3350886.2534, 3694904.2478, -0.864218, 1.721248, 326.688545, -1.915000, 2.970000, 0.062000, 0.21836700, 0.29813200, 0.13973200, 0.00770700000, -0.00665800000, 0.00013700000
273399.40, 2032, 35.62974381, 139.78681736, 45.7199, -3963388.3927, 3350886.2923, 3694904.4935, -0.870613, 1.691761, 326.683635, -1.952000, 2.983000, 0.068000, 0.16527400, -0.15545800, 0.14722500, -0.00833400000, -0.00056400000, -0.00181400000
273399.50, 2032, 35.62974652, 139.78681520, 45.7268, -3963388.1371, 3350886.3327, 3694904.7413, -0.883483, 1.702747, 326.674758, -1.970000, 3.009000, 0.075000, 0.55036700, -0.01435700, -0.16187600, -0.00419600000, 0.00564600000, -0.00142100000
273399.60, 2032, 35.62974924, 139.78681301, 45.7347, -3963387.8794, 3350886.3747, 3694904.9916, -0.939283, 1.719029, 326.666837, -1.993000, 3.039000, 0.082000, 0.24292100, 0.02497000, -0.21856300, -0.00952400000, -0.00077000000, -0.00084300000
273399.70, 2032, 35.62975199, 139.78681081, 45.7425, -3963387.6197, 3350886.4163, 3694905.2442, -0.959234, 1.702596, 326.657484, -1.989000, 3.058000, 0.082000, 0.23029700, 0.09928900, 0.03621300, 0.00186900000, -0.00004300000, -0.00140800000
273399.80, 2032, 35.62975475, 139.78680860, 45.7497, -3963387.3589, 3350886.4574, 3694905.4974, -0.973063, 1.660092, 326.653915, -2.003000, 3.076000, 0.060000, 0.03733700, -0.07188700, 0.01952900, -0.00124100000, -0.01487000000, -0.00015200000
273399.90, 2032, 35.62975752, 139.78680639, 45.7564, -3963387.0972, 3350886.4986, 3694905.7507, -1.000035, 1.595987, 326.656364, -2.006000, 3.061000, 0.073000, -0.12208700, -0.04265300, 0.11362100, -0.00622200000, -0.00838000000, 0.00023200000
273400.00, 2032, 35.62976028, 139.78680418, 45.7629, -3963386.8355, 3350886.5395, 3694906.0037, -1.006892, 1.533089, 326.649433, -1.996000, 3.070000, 0.060000, -0.03503800, -0.01861600, 0.01236500, 0.00192800000, -0.01054400000, -0.00310200000
273400.10, 2032, 35.62976305, 139.78680198, 45.7690, -3963386.5742, 3350886.5796, 3694906.2565, -0.999608, 1.486407, 326.646033, -1.990000, 3.061000, 0.058000, -0.11128700, -0.13213700, 0.21678600, 0.00034800000, -0.00561700000, 0.00340400000
273400.20, 2032, 35.62976580, 139.78679979, 45.7749, -3963386.3135, 3350886.6192, 3694906.5087, -0.983487, 1.436868, 326.669404, -1.980000, 3.055000, 0.064000, -0.22777600, 0.04067300, -0.14100800, 0.00430300000, -0.00875600000, 0.00243500000
273400.30, 2032, 35.62976855, 139.78679760, 45.7812, -3963386.0540, 3350886.6592, 3694906.7600, -0.986306, 1.369628, 326.659618, -1.978000, 3.038000, 0.066000, -0.17243400, 0.07144000, -0.05926300, -0.00338400000, -0.01291900000, -0.00425400000
273400.40, 2032, 35.62977128, 139.78679543, 45.7877, -3963385.7965, 3350886.6989, 3694907.0097, -0.971359, 1.309097, 326.647122, -1.951000, 3.010000, 0.068000, -0.30572100, -0.11220000, 0.21710600, 0.00624300000, -0.00502900000, 0.00036400000
273400.50, 2032, 35.62977397, 139.78679328, 45.7945, -3963385.5418, 3350886.7390, 3694907.2568, -0.986654, 1.301389, 326.658428, -1.943000, 2.965000, 0.075000, -0.34005900, -0.07505400, 0.06153500, -0.00845400000, 0.00734000000, 0.00273400000
273400.60, 2032, 35.62977664, 139.78679113, 45.8011, -3963385.2889, 3350886.7794, 3694907.5011, -1.027231, 1.322758, 326.663362, -1.936000, 2.944000, 0.068000, -0.39696500, -0.10367100, -0.24200400, -0.00726600000, 0.00591600000, -0.00072000000
273400.70, 2032, 35.62977929, 139.78678900, 45.8076, -3963385.0377, 3350886.8196, 3694907.7438, -1.067658, 1.347017, 326.649404, -1.930000, 2.939000, 0.052000, -0.13284400, -0.13788900, 0.01718100, -0.00881800000, -0.00425900000, -0.00385200000
273400.80, 2032, 35.62978192, 139.78678689, 45.8140, -3963384.7883, 3350886.8591, 3694907.9849, -1.104245, 1.372230, 326.628755, -1.892000, 2.904000, 0.072000, -0.44703900, 0.12034600, 0.21415300, -0.00176300000, 0.01401400000, -0.00228200000
273400.90, 2032, 35.62978454, 139.78678481, 45.8194, -3963384.5403, 3350886.8968, 3694908.2244, -1.101748, 1.392426, 326.618153, -1.885000, 2.911000, 0.042000, -0.28639800, 0.05969900, 0.08636900, 0.00509200000, -0.00466200000, -0.00114700000
273401.00, 2032, 35.62978714, 139.78678275, 45.8257, -3963384.2958, 3350886.9337, 3694908.4625, -1.051314, 1.451467, 326.632696, -1.852000, 2.858000, 0.076000, -0.38498700, 0.08919400, -0.09603300, -0.00231500000, 0.01876400000, 0.00477400000
273401.10, 2032, 35.62978972, 139.78678071, 45.8327, -3963384.0538, 3350886.9709, 3694908.6987, -1.060798, 1.531783, 326.670656, -1.843000, 2.849000, 0.064000, -0.27687900, -0.03833600, -0.22809200, 0.00051500000, 0.00836900000, 0.00768500000
273401.20, 2032, 35.62979228, 139.78677869, 45.8386, -3963383.8124, 3350887.0069, 3694908.9338, -1.025797, 1.535814, 326.713539, -1.826000, 2.843000, 0.064000, -0.07590300, 0.07820300, -0.09687000, 0.00353400000, -0.00161500000, 0.00826600000
273401.30, 2032, 35.62979483, 139.78677668, 45.8457, -3963383.5737, 3350887.0431, 3694909.1676, -1.037274, 1.545719, 326.760875, -1.801000, 2.808000, 0.081000, -0.36467100, 0.03800900, 0.06530200, 0.00080000000, 0.00900500000, 0.00856500000
273401.40, 2032, 35.62979736, 139.78677471, 45.8529, -3963383.3377, 3350887.0782, 3694909.3998, -1.009169, 1.573683, 326.811862, -1.785000, 2.809000, 0.057000, -0.15526800, -0.00162800, -0.01193300, 0.00715800000, -0.00426500000, 0.00985300000
273401.50, 2032, 35.62979988, 139.78677275, 45.8593, -3963383.1030, 3350887.1121, 3694909.6304, -0.989083, 1.575751, 326.886361, -1.763000, 2.779000, 0.068000, -0.03614100, 0.15768900, -0.16401300, -0.00054300000, 0.00115500000, 0.01615300000
273401.60, 2032, 35.62980237, 139.78677081, 45.8657, -3963382.8704, 3350887.1452, 3694909.8593, -1.000580, 1.585503, 326.996546, -1.745000, 2.766000, 0.057000, 0.29624200, -0.01451100, 0.78712700, 0.00034300000, 0.00406300000, 0.02226800000
273401.70, 2032, 35.62980486, 139.78676889, 45.8727, -3963382.6398, 3350887.1778, 3694910.0876, -1.010597, 1.682995, 327.131445, -1.741000, 2.773000, 0.065000, 0.05595400, 0.49744700, -0.29437800, -0.00630200000, 0.01083500000, 0.02088600000
273401.80, 2032, 35.62980738, 139.78676696, 45.8796, -3963382.4065, 3350887.2099, 3694910.3191, -1.035225, 1.680836, 327.245548, -1.751000, 2.818000, 0.082000, 0.01745600, -0.14755700, -0.40840400, 0.00176800000, -0.00239300000, 0.02120700000
273401.90, 2032, 35.62980994, 139.78676502, 45.8864, -3963382.1710, 3350887.2410, 3694910.5536, -1.007801, 1.617951, 327.386922, -1.759000, 2.839000, 0.077000, 0.20490700, 0.21256300, -0.01260700, 0.00071300000, -0.00715400000, 0.02551600000
273402.00, 2032, 35.62981250, 139.78676307, 45.8936, -3963381.9352, 3350887.2726, 3694910.7889, -1.043995, 1.580165, 327.516717, -1.768000, 2.840000, 0.078000, 0.20014400, 0.12573900, 0.18019300, -0.01323300000, -0.00227200000, 0.02073400000
273402.10, 2032, 35.62981507, 139.78676113, 45.9008, -3963381.6992, 3350887.3031, 3694911.0252, -1.037564, 1.565809, 327.636564, -1.748000, 2.876000, 0.060000, 0.24668500, 0.25394100, 0.11831900, 0.00970100000, -0.00686300000, 0.02137400000
273402.20, 2032, 35.62981767, 139.78675920, 45.9072, -3963381.4618, 3350887.3320, 3694911.2632, -1.016180, 1.538717, 327.764898, -1.756000, 2.890000, 0.067000, 0.07658700, -0.16105300, -0.08432300, -0.00020900000, -0.00314000000, 0.02316000000
273402.30, 2032, 35.62982028, 139.78675726, 45.9138, -3963381.2240, 3350887.3608, 3694911.5020, -1.015870, 1.535227, 327.902825, -1.753000, 2.887000, 0.070000, -0.20549600, -0.13893300, -0.12459000, 0.00054500000, 0.00113200000, 0.02483300000
273402.40, 2032, 35.62982288, 139.78675532, 45.9202, -3963380.9861, 3350887.3894, 3694911.7406, -1.026683, 1.514650, 328.040864, -1.755000, 2.887000, 0.068000, 0.11223800, 0.00926300, -0.04354800, -0.00536900000, -0.00433200000, 0.02211500000
273402.50, 2032, 35.62982549, 139.78675339, 45.9267, -3963380.7486, 3350887.4175, 3694911.9795, -1.029495, 1.501496, 328.162412, -1.745000, 2.897000, 0.063000, -0.03642600, 0.17290000, 0.39363700, -0.00251200000, -0.00011100000, 0.02044000000
273402.60, 2032, 35.62982811, 139.78675146, 45.9327, -3963380.5100, 3350887.4447, 3694912.2194, -1.050254, 1.501894, 328.281461, -1.749000, 2.922000, 0.055000, 0.17314200, -0.07528600, -0.07292400, 0.00025800000, -0.00121200000, 0.02183700000
273402.70, 2032, 35.62983076, 139.78674953, 45.9382, -3963380.2696, 3350887.4710, 3694912.4614, -1.029958, 1.486408, 328.404199, -1.764000, 2.951000, 0.054000, 0.21259800, 0.02534400, -0.25725800, 0.00033800000, -0.00761300000, 0.01942600000
273402.80, 2032, 35.62983343, 139.78674757, 45.9438, -3963380.0268, 3350887.4978, 3694912.7056, -1.026983, 1.426713, 328.500651, -1.786000, 2.973000, 0.058000, 0.27151200, 0.26904000, 0.11266200, -0.00452900000, -0.01197400000, 0.01177800000
273402.90, 2032, 35.62983611, 139.78674560, 45.9493, -3963379.7823, 3350887.5250, 3694912.9510, -1.022169, 1.383380, 328.542851, -1.788000, 2.993000, 0.044000, 0.04783300, -0.06635900, -0.00183400, 0.00675900000, -0.00806300000, 0.00489000000
273403.00, 2032, 35.62983882, 139.78674361, 45.9537, -3963379.5353, 3350887.5518, 3694913.1975, -0.995521, 1.329379, 328.569710, -1.812000, 3.013000, 0.041000, 0.45534700, -0.12990700, -0.02132700, 0.00370900000, -0.01468400000, 0.00397500000
273403.10, 2032, 35.62984154, 139.78674160, 45.9588, -3963379.2866, 3350887.5799, 3694913.4461, -0.971082, 1.267375, 328.573671, -1.832000, 3.024000, 0.067000, 0.58908000, 0.29578500, -0.30903300, 0.00185500000, -0.00496300000, -0.00482100000
273403.20, 2032, 35.62984428, 139.78673956, 45.9648, -3963379.0353, 3350887.6101, 3694913.6968, -0.970476, 1.213575, 328.513965, -1.869000, 3.057000, 0.057000, 0.28634000, 0.11946200, 0.31087200, -0.00003600000, -0.01004700000, -0.01517000000
273403.30, 2032, 35.62984705, 139.78673748, 45.9703, -3963378.7810, 3350887.6414, 3694913.9491, -0.984179, 1.177561, 328.431736, -1.888000, 3.061000, 0.066000, 0.37135900, -0.10919200, 0.02600600, -0.00481600000, 0.00619800000, -0.01209900000
273403.40, 2032, 35.62984982, 139.78673538, 45.9756, -3963378.5246, 3350887.6735, 3694914.2024, -1.005238, 1.190205, 328.367986, -1.909000, 3.094000, 0.049000, 0.28500200, 0.08174200, 0.01625100, -0.00134200000, 0.00287000000, -0.01059500000
273403.50, 2032, 35.62985261, 139.78673326, 45.9817, -3963378.2664, 3350887.7071, 3694914.4579, -1.048016, 1.254170, 328.291500, -1.939000, 3.110000, 0.065000, 0.29808200, -0.07398700, 0.16164300, -0.00716000000, 0.01640600000, -0.01677200000
273403.60, 2032, 35.62985544, 139.78673114, 45.9880, -3963378.0064, 3350887.7391, 3694914.7168, -0.948504, 1.389443, 328.176142, -1.892000, 3.163000, 0.078000, 0.27890000, 0.06681600, 0.47146900, 0.04864900000, 0.04477100000, -0.02019800000
273403.70, 2032, 35.62985833, 139.78672902, 45.9955, -3963377.7447, 3350887.7687, 3694914.9817, -0.708350, 1.601908, 328.069587, -1.927000, 3.209000, 0.108000, -0.20143500, 0.06258600, -0.22706600, 0.03096800000, 0.05112500000, -0.01843600000
273403.80, 2032, 35.62986130, 139.78672686, 46.0000, -3963377.4744, 3350887.7972, 3694915.2519, -0.421781, 1.679524, 327.945182, -1.963000, 3.300000, 0.081000, 1.00991000, -0.16482000, -0.36687700, 0.06145300000, 0.03440000000, -0.02363500000
273403.90, 2032, 35.62986432, 139.78672460, 46.0028, -3963377.1953, 3350887.8282, 3694915.5261, -0.170809, 1.663824, 327.796718, -2.109000, 3.402000, -0.008000, 1.47323800, -0.09672900, -0.20878600, 0.02312700000, -0.03105000000, -0.02830400000
273404.00, 2032, 35.62986737, 139.78672221, 46.0050, -3963376.9061, 3350887.8676, 3694915.8025, -0.218322, 1.547333, 327.621330, -2.240000, 3.412000, 0.000000, 0.34383500, -0.68444900, 0.14919900, -0.02284400000, -0.03775500000, -0.03312100000
273404.10, 2032, 35.62987044, 139.78671971, 46.0093, -3963376.6111, 3350887.9152, 3694916.0815, -0.392867, 1.467653, 327.407000, -2.277000, 3.390000, 0.088000, 0.56072400, 0.08326600, -0.64172800, -0.02766000000, 0.01026100000, -0.03954600000
273404.20, 2032, 35.62987353, 139.78671713, 46.0171, -3963376.3127, 3350887.9688, 3694916.3644, -0.659468, 1.405882, 327.158348, -2.371000, 3.456000, 0.080000, 1.33824300, 0.15495000, -0.54780300, -0.04611500000, -0.02226400000, -0.04631800000
273404.30, 2032, 35.62987669, 139.78671448, 46.0265, -3963376.0080, 3350888.0248, 3694916.6548, -0.908152, 1.167403, 326.813964, -2.397000, 3.563000, 0.104000, 0.06415700, -0.09045600, 0.65551200, -0.01856800000, -0.04767300000, -0.06717200000
273404.40, 2032, 35.62987992, 139.78671184, 46.0339, -3963375.6980, 3350888.0764, 3694916.9513, -0.876823, 0.886667, 326.486252, -2.392000, 3.631000, 0.041000, 0.89855700, -0.30744800, 0.56855400, 0.02702500000, -0.04764000000, -0.04759200000
273404.50, 2032, 35.62988320, 139.78670920, 46.0374, -3963375.3845, 3350888.1243, 3694917.2482, -0.713950, 0.744829, 326.238855, -2.401000, 3.630000, 0.022000, 0.85510300, -0.03098200, 0.93911900, 0.02516600000, -0.00347700000, -0.04285100000
273404.60, 2032, 35.62988646, 139.78670653, 46.0379, -3963375.0674, 3350888.1729, 3694917.5431, -0.559851, 0.848190, 325.988099, -2.433000, 3.618000, -0.007000, 0.77225300, -0.54985100, 0.28661800, 0.03066400000, 0.03807800000, -0.04097400000
273404.70, 2032, 35.62988974, 139.78670378, 46.0380, -3963374.7450, 3350888.2264, 3694917.8385, -0.480463, 1.022797, 325.738492, -2.554000, 3.635000, 0.034000, 0.72538500, -0.44066400, -0.80869300, -0.01317200000, 0.02757500000, -0.04924500000
273404.80, 2032, 35.62989305, 139.78670090, 46.0409, -3963374.4146, 3350888.2895, 3694918.1388, -0.619684, 1.005697, 325.448131, -2.662000, 3.672000, 0.084000, 0.23159600, -1.08590200, -0.42819200, -0.03931200000, 0.00248200000, -0.04979300000
273404.90, 2032, 35.62989638, 139.78669789, 46.0475, -3963374.0785, 3350888.3618, 3694918.4431, -0.928271, 0.904989, 325.184920, -2.753000, 3.693000, 0.096000, 0.28516000, -0.46003100, 0.22425700, -0.05501000000, -0.00387900000, -0.04567800000
273405.00, 2032, 35.62989974, 139.78669486, 46.0549, -3963373.7399, 3350888.4356, 3694918.7500, -1.120231, 0.926270, 324.905381, -2.723000, 3.734000, 0.082000, 0.39270200, 0.20228700, 0.40030800, -0.01166900000, 0.03212500000, -0.04923900000
273405.10, 2032, 35.62990315, 139.78669182, 46.0598, -3963373.3973, 3350888.5057, 3694919.0603, -1.199417, 1.026952, 324.616392, -2.761000, 3.808000, 0.048000, 1.04233600, 0.00091600, -0.26638100, -0.01190100000, 0.01976500000, -0.05023600000
273405.20, 2032, 35.62990663, 139.78668876, 46.0609, -3963373.0468, 3350888.5723, 3694919.3757, -1.110934, 1.022155, 324.327137, -2.797000, 3.940000, -0.030000, 0.58783900, -0.29544400, -0.17966900, 0.03510800000, -0.02703600000, -0.04948300000
273405.30, 2032, 35.62991018, 139.78668565, 46.0610, -3963372.6896, 3350888.6398, 3694919.6957, -0.960406, 0.947834, 324.068343, -2.841000, 3.937000, 0.026000, 0.31932300, -0.62793800, -0.17689200, 0.02409000000, 0.00089100000, -0.04031600000
273405.40, 2032, 35.62991374, 139.78668246, 46.0628, -3963372.3283, 3350888.7126, 3694920.0180, -0.898760, 0.894947, 323.869313, -2.935000, 3.960000, 0.014000, 0.74669100, -0.47248100, 0.16112600, -0.00203300000, -0.01271700000, -0.03017900000
273405.50, 2032, 35.62991732, 139.78667918, 46.0656, -3963371.9620, 3350888.7915, 3694920.3421, -0.966646, 0.816890, 323.696550, -3.007000, 3.987000, 0.036000, 0.50698300, 0.51091800, -0.69262300, -0.02035000000, -0.02393600000, -0.03706900000
273405.60, 2032, 35.62992094, 139.78667584, 46.0684, -3963371.5896, 3350888.8732, 3694920.6701, -1.098748, 0.614168, 323.456590, -3.044000, 4.047000, 0.014000, 0.26632300, -0.42305600, 0.37672900, -0.01743000000, -0.04158800000, -0.03945800000
273405.70, 2032, 35.62992459, 139.78667250, 46.0701, -3963371.2150, 3350888.9528, 3694921.0004, -1.114905, 0.482335, 323.304305, -3.016000, 4.053000, 0.017000, 0.51723800, -0.14352100, 0.38518000, 0.00684900000, -0.00575700000, -0.01752200000
273405.80, 2032, 35.62992825, 139.78666916, 46.0708, -3963370.8394, 3350889.0317, 3694921.3307, -1.109866, 0.494675, 323.223893, -3.034000, 4.057000, 0.012000, 0.62810000, -0.08678700, -0.08183100, -0.00373100000, 0.01753800000, -0.01198100000
273405.90, 2032, 35.62993194, 139.78666577, 46.0705, -3963370.4596, 3350889.1116, 3694921.6629, -1.147394, 0.524326, 323.150076, -3.096000, 4.111000, -0.005000, 0.21102300, -0.17126200, 0.10261600, -0.01572000000, -0.00148400000, -0.01291300000
273406.00, 2032, 35.62993567, 139.78666235, 46.0707, -3963370.0751, 3350889.1931, 3694921.9996, -1.198868, 0.538907, 323.106307, -3.117000, 4.169000, 0.010000, 0.22770600, -0.38364700, -0.27668800, -0.00810000000, 0.00258200000, -0.00187500000
273406.10, 2032, 35.62993946, 139.78665888, 46.0714, -3963369.6852, 3350889.2754, 3694922.3420, -1.290957, 0.521999, 323.136894, -3.178000, 4.271000, -0.032000, 1.63878800, 0.20058100, -0.05029400, -0.01219800000, -0.02567900000, 0.01034700000
273406.20, 2032, 35.62994333, 139.78665537, 46.0706, -3963369.2888, 3350889.3559, 3694922.6906, -1.340159, 0.471371, 323.224764, -3.190000, 4.342000, -0.021000, 0.34370400, 0.01714100, 0.11203000, -0.00429100000, -0.01566400000, 0.01803200000
273406.30, 2032, 35.62994727, 139.78665184, 46.0692, -3963368.8867, 3350889.4347, 3694923.0455, -1.353947, 0.406831, 323.339566, -3.204000, 4.405000, -0.012000, 0.32457200, -0.02623700, 0.04766000, 0.00053600000, -0.00818000000, 0.02216700000
273406.40, 2032, 35.62995128, 139.78664829, 46.0671, -3963368.4804, 3350889.5119, 3694923.4053, -1.319586, 0.333035, 323.488551, -3.231000, 4.465000, -0.023000, 0.68917400, 0.24200500, -0.01730600, -0.00145600000, -0.01409300000, 0.02711100000
273406.50, 2032, 35.62995531, 139.78664472, 46.0664, -3963368.0715, 3350889.5903, 3694923.7690, -1.351930, 0.302390, 323.647440, -3.251000, 4.503000, -0.005000, 0.47252800, 0.05500600, 0.08086000, -0.00563000000, -0.00555400000, 0.02817600000
273406.60, 2032, 35.62995941, 139.78664113, 46.0640, -3963367.6583, 3350889.6667, 3694924.1365, -1.322909, 0.258237, 323.813272, -3.249000, 4.575000, -0.044000, 0.76436200, 0.22266500, 0.28803200, 0.01453600000, -0.01068600000, 0.02920500000
273406.70, 2032, 35.62996354, 139.78663753, 46.0595, -3963367.2406, 3350889.7409, 3694924.5069, -1.311048, 0.202657, 323.975105, -3.276000, 4.611000, -0.052000, 0.43527800, 0.32369000, 0.25396200, -0.00372600000, -0.01215700000, 0.02758900000
273406.80, 2032, 35.62996771, 139.78663392, 46.0549, -3963366.8206, 3350889.8143, 3694924.8804, -1.283797, 0.167497, 324.137727, -3.280000, 4.646000, -0.045000, 0.33546300, -0.00599300, -0.26449000, 0.00263400000, -0.00850000000, 0.02708300000
273406.90, 2032, 35.62997192, 139.78663029, 46.0510, -3963366.3985, 3350889.8879, 3694925.2572, -1.290267, 0.087355, 324.306832, -3.295000, 4.678000, -0.025000, 0.11769200, 0.11641100, -0.32890400, -0.00448800000, -0.01567400000, 0.03018300000
273407.00, 2032, 35.62997614, 139.78662665, 46.0489, -3963365.9759, 3350889.9619, 3694925.6372, -1.315388, 0.034837, 324.481493, -3.291000, 4.706000, -0.021000, -0.01680400, 0.47376300, 0.57166900, -0.00179400000, -0.00608600000, 0.02776300000
273407.10, 2032, 35.62998040, 139.78662301, 46.0455, -3963365.5510, 3350890.0340, 3694926.0191, -1.345913, 0.013683, 324.623780, -3.288000, 4.729000, -0.028000, 0.10042900, 0.15533200, 0.16490000, -0.00429900000, 0.00589200000, 0.02453200000
273407.20, 2032, 35.62998470, 139.78661940, 46.0390, -3963365.1232, 3350890.1016, 3694926.4028, -1.276371, -0.037398, 324.783201, -3.260000, 4.766000, -0.043000, 0.15459200, 0.35018600, 0.02168700, 0.01183000000, 0.00486900000, 0.02984200000
273407.30, 2032, 35.62998901, 139.78661579, 46.0334, -3963364.6964, 3350890.1681, 3694926.7882, -1.231945, -0.032684, 324.957450, -3.252000, 4.779000, -0.045000, 0.23849100, 0.06164800, -0.23664200, 0.00791000000, 0.00811600000, 0.03150900000
273407.40, 2032, 35.62999333, 139.78661220, 46.0280, -3963364.2693, 3350890.2337, 3694927.1748, -1.187995, -0.055003, 325.131492, -3.271000, 4.811000, -0.062000, 0.03463600, 0.18684700, -0.21176900, 0.00139700000, -0.01681000000, 0.02894000000
273407.50, 2032, 35.62999766, 139.78660859, 46.0235, -3963363.8423, 3350890.3000, 3694927.5624, -1.202520, -0.092295, 325.296279, -3.257000, 4.805000, -0.049000, -0.20122800, 0.18821800, 0.09719800, -0.00098900000, -0.00597600000, 0.02823200000
273407.60, 2032, 35.63000198, 139.78660500, 46.0197, -3963363.4164, 3350890.3658, 3694927.9503, -1.249460, -0.081620, 325.447369, -3.244000, 4.798000, -0.034000, -0.05924500, 0.40373100, 0.36280900, -0.00945800000, 0.00727400000, 0.02432500000
273407.70, 2032, 35.63000632, 139.78660143, 46.0155, -3963362.9910, 3350890.4298, 3694928.3387, -1.284860, -0.055904, 325.585667, -3.231000, 4.830000, -0.058000, -0.03791900, -0.07813400, 0.23213300, 0.00061400000, -0.00878800000, 0.02579500000
273407.80, 2032, 35.63001067, 139.78659787, 46.0090, -3963362.5637, 3350890.4908, 3694928.7279, -1.281928, -0.120638, 325.749315, -3.214000, 4.834000, -0.063000, -0.05710900, 0.19018800, -0.12359300, 0.00104400000, -0.00849900000, 0.03020400000
273407.90, 2032, 35.63001504, 139.78659432, 46.0013, -3963362.1355, 3350890.5499, 3694929.1176, -1.280304, -0.231507, 325.923975, -3.215000, 4.847000, -0.067000, 0.00924700, 0.27887000, -0.37961600, -0.00771600000, -0.01926000000, 0.02861100000
273408.00, 2032, 35.63001942, 139.78659078, 45.9936, -3963361.7076, 3350890.6078, 3694929.5081, -1.296535, -0.384519, 326.078591, -3.186000, 4.866000, -0.078000, 0.17219900, 0.20904000, 0.06113200, 0.00665000000, -0.02627300000, 0.02586800000
273408.10, 2032, 35.63002381, 139.78658728, 45.9861, -3963361.2819, 3350890.6631, 3694929.8991, -1.252744, -0.516280, 326.241500, -3.161000, 4.872000, -0.088000, 0.00049500, 0.19955500, 0.35628500, 0.00953800000, -0.02885000000, 0.02923000000
273408.20, 2032, 35.63002819, 139.78658381, 45.9771, -3963360.8570, 3350890.7154, 3694930.2891, -1.167648, -0.634160, 326.402332, -3.133000, 4.866000, -0.108000, -0.19365800, 0.05266300, 0.31142300, 0.01809700000, -0.02323100000, 0.02459600000
273408.30, 2032, 35.63003257, 139.78658038, 45.9661, -3963360.4336, 3350890.7644, 3694930.6774, -1.034443, -0.694414, 326.525974, -3.085000, 4.846000, -0.111000, -0.23269500, 0.26735900, 0.49917500, 0.02835500000, 0.00211100000, 0.01697300000
273408.40, 2032, 35.63003692, 139.78657698, 45.9561, -3963360.0135, 3350890.8127, 3694931.0642, -0.888724, -0.620716, 326.603488, -3.070000, 4.824000, -0.104000, -0.24957400, -0.07114600, 0.05816000, 0.02580300000, 0.01689500000, 0.01312900000
273408.50, 2032, 35.63004126, 139.78657355, 45.9467, -3963359.5931, 3350890.8639, 3694931.4498, -0.895614, -0.553977, 326.658158, -3.130000, 4.804000, -0.095000, 0.10868300, -0.18783700, -0.18806800, -0.01415400000, 0.00169900000, 0.00800200000
273408.60, 2032, 35.63004560, 139.78657009, 45.9358, -3963359.1699, 3350890.9164, 3694931.8349, -0.922400, -0.603294, 326.705055, -3.142000, 4.806000, -0.096000, -0.25446900, 0.12067200, -0.17471900, -0.01453400000, -0.00687000000, 0.00747700000
273408.70, 2032, 35.63004993, 139.78656661, 45.9249, -3963358.7455, 3350890.9709, 3694932.2191, -1.088916, -0.684855, 326.729563, -3.151000, 4.788000, -0.090000, -0.30624100, 0.26512900, 0.13664100, -0.03032600000, 0.00189500000, -0.00061000000
273408.80, 2032, 35.63005425, 139.78656315, 45.9173, -3963358.3255, 3350891.0261, 3694932.6040, -1.165010, -0.625710, 326.699924, -3.104000, 4.783000, -0.056000, 0.34074800, -0.04635600, -0.09177900, 0.00442300000, 0.02313300000, -0.00646200000
273408.90, 2032, 35.63005856, 139.78655970, 45.9103, -3963357.9065, 3350891.0807, 3694932.9890, -1.170699, -0.570926, 326.660199, -3.132000, 4.792000, -0.077000, 0.00237900, -0.28444900, -0.12693300, -0.00002800000, 0.00129100000, -0.00493400000
273409.00, 2032, 35.63006288, 139.78655626, 45.9020, -3963357.4869, 3350891.1347, 3694933.3733, -1.117587, -0.542624, 326.638175, -3.130000, 4.786000, -0.097000, 0.13939100, 0.27260100, 0.46897900, 0.00366400000, 0.00330400000, -0.00647300000
273409.10, 2032, 35.63006717, 139.78655281, 45.8926, -3963357.0673, 3350891.1890, 3694933.7553, -1.126526, -0.439880, 326.602533, -3.124000, 4.749000, -0.096000, -0.09347300, -0.10015900, -0.10791700, -0.00863500000, 0.02599300000, -0.00357900000
273409.20, 2032, 35.63007147, 139.78654934, 45.8818, -3963356.6456, 3350891.2440, 3694934.1365, -1.178161, -0.401473, 326.587844, -3.157000, 4.784000, -0.117000, 0.15775100, -0.04192200, -0.63086900, -0.00662800000, -0.01259300000, -0.00314500000
273409.30, 2032, 35.63007578, 139.78654583, 45.8709, -3963356.2209, 3350891.3007, 3694934.5193, -1.254716, -0.535195, 326.551878, -3.187000, 4.798000, -0.109000, -0.00210800, -0.10146900, -0.35104300, -0.01350400000, -0.03439800000, -0.00851700000
273409.40, 2032, 35.63008010, 139.78654232, 45.8620, -3963355.7971, 3350891.3587, 3694934.9033, -1.340424, -0.693018, 326.496734, -3.168000, 4.791000, -0.082000, -0.21654500, 0.15049000, 0.15693200, -0.00602800000, -0.02361600000, -0.01181300000
273409.50, 2032, 35.63008441, 139.78653885, 45.8546, -3963355.3765, 3350891.4150, 3694935.2879, -1.316455, -0.757438, 326.428501, -3.142000, 4.776000, -0.073000, -0.35324800, 0.07367600, 0.10257200, -0.00425000000, -0.00599000000, -0.01156600000
273409.60, 2032, 35.63008871, 139.78653540, 45.8466, -3963354.9577, 3350891.4703, 3694935.6707, -1.291918, -0.730389, 326.384399, -3.117000, 4.762000, -0.101000, 0.09867000, -0.23494700, 0.67961600, 0.01294800000, 0.00949000000, -0.00342400000
273409.70, 2032, 35.63009299, 139.78653195, 45.8352, -3963354.5373, 3350891.5240, 3694936.0506, -1.245300, -0.673728, 326.374698, -3.135000, 4.756000, -0.130000, -0.24538100, -0.14100600, 0.00743900, 0.00200400000, 0.00459900000, -0.00035800000
273409.80, 2032, 35.63009728, 139.78652848, 45.8223, -3963354.1149, 3350891.5784, 3694936.4296, -1.285444, -0.648182, 326.367143, -3.142000, 4.752000, -0.122000, -0.13434500, 0.21781600, -0.14377700, -0.00442300000, 0.00755300000, -0.00271900000
273409.90, 2032, 35.63010158, 139.78652502, 45.8104, -3963353.6930, 3350891.6323, 3694936.8100, -1.242474, -0.632807, 326.320031, -3.127000, 4.778000, -0.111000, 0.27360500, 0.09503000, -0.08079400, 0.01552700000, 0.00090400000, -0.01183900000
273410.00, 2032, 35.63010588, 139.78652156, 45.7999, -3963353.2713, 3350891.6870, 3694937.1920, -1.207806, -0.676298, 326.276175, -3.156000, 4.776000, -0.101000, -0.29708500, 0.13674200, -0.31687800, 0.00266300000, -0.01871500000, -0.00389900000
273410.10, 2032, 35.63011018, 139.78651808, 45.7898, -3963352.8493, 3350891.7428, 3694937.5741, -1.151622, -0.775958, 326.264225, -3.150000, 4.753000, -0.088000, -0.12528700, -0.12245200, 0.24589500, 0.00189200000, -0.00575300000, -0.00208300000
273410.20, 2032, 35.63011447, 139.78651459, 45.7787, -3963352.4270, 3350891.7991, 3694937.9542, -1.173641, -0.842843, 326.245473, -3.148000, 4.747000, -0.115000, -0.19480400, -0.10788500, 0.48160100, -0.00025200000, -0.00043900000, -0.00461900000
273410.30, 2032, 35.63011874, 139.78651113, 45.7673, -3963352.0063, 3350891.8543, 3694938.3331, -1.141845, -0.793915, 326.207727, -3.131000, 4.737000, -0.113000, -0.00101300, -0.04590300, -0.13278100, 0.00736100000, 0.01488300000, -0.00728100000
273410.40, 2032, 35.63012302, 139.78650767, 45.7549, -3963351.5851, 3350891.9087, 3694938.7116, -1.088306, -0.770432, 326.169684, -3.137000, 4.749000, -0.122000, -0.15715300, -0.10735700, -0.26128700, 0.00952500000, 0.00149200000, -0.00528600000
273410.50, 2032, 35.63012730, 139.78650420, 45.7438, -3963351.1644, 3350891.9644, 3694939.0907, -1.060423, -0.753925, 326.139555, -3.148000, 4.734000, -0.096000, 0.23226500, 0.06793000, -0.05314100, -0.00171000000, 0.00660600000, -0.00672100000
273410.60, 2032, 35.63013156, 139.78650073, 45.7334, -3963350.7443, 3350892.0210, 3694939.4695, -1.047749, -0.721724, 326.095080, -3.137000, 4.718000, -0.093000, -0.13888600, -0.07907000, -0.12507900, 0.00142900000, 0.01885200000, -0.00811400000
273410.70, 2032, 35.63013582, 139.78649726, 45.7232, -3963350.3249, 3350892.0777, 3694939.8477, -1.019377, -0.646864, 326.059594, -3.155000, 4.718000, -0.099000, 0.14493200, -0.15788400, -0.21291700, -0.00601500000, 0.00961300000, -0.00475200000
273410.80, 2032, 35.63014008, 139.78649378, 45.7120, -3963349.9042, 3350892.1348, 3694940.2253, -1.027636, -0.636008, 326.046540, -3.151000, 4.725000, -0.108000, 0.03845600, 0.02597300, -0.22982000, -0.00123700000, 0.00311200000, -0.00017600000
273410.90, 2032, 35.63014434, 139.78649030, 45.7020, -3963349.4841, 3350892.1929, 3694940.6034, -1.077182, -0.628199, 326.051109, -3.162000, 4.722000, -0.094000, 0.19940800, -0.08632900, -0.00233100, -0.01411000000, -0.00119500000, 0.00135800000
273411.00, 2032, 35.63014860, 139.78648682, 45.6919, -3963349.0641, 3350892.2503, 3694940.9819, -1.108601, -0.657656, 326.084013, -3.141000, 4.731000, -0.099000, 0.02330900, 0.03162800, -0.22243900, -0.00221500000, -0.00296100000, 0.00929100000
273411.10, 2032, 35.63015286, 139.78648335, 45.6823, -3963348.6447, 3350892.3074, 3694941.3607, -1.156690, -0.681027, 326.144273, -3.143000, 4.732000, -0.097000, 0.28715600, 0.06527300, 0.00616100, -0.00763100000, -0.00566800000, 0.00996300000
273411.20, 2032, 35.63015712, 139.78647988, 45.6727, -3963348.2256, 3350892.3645, 3694941.7393, -1.213672, -0.690587, 326.194784, -3.147000, 4.730000, -0.104000, 0.26268000, 0.19728600, -0.25055300, -0.01292200000, -0.00468700000, 0.00756600000
273411.30, 2032, 35.63016139, 139.78647640, 45.6625, -3963347.8055, 3350892.4216, 3694942.1181, -1.306141, -0.727322, 326.227271, -3.152000, 4.740000, -0.102000, 0.05644500, -0.00682300, 0.14171900, -0.01714500000, -0.00996900000, 0.00488700000
273411.40, 2032, 35.63016566, 139.78647295, 45.6522, -3963347.3861, 3350892.4770, 3694942.4974, -1.324779, -0.722041, 326.275822, -3.118000, 4.750000, -0.117000, 0.36250100, 0.07953000, 0.11814200, 0.00484600000, -0.00021900000, 0.01134100000
273411.50, 2032, 35.63016994, 139.78646951, 45.6416, -3963346.9671, 3350892.5309, 3694942.8769, -1.343467, -0.704887, 326.349491, -3.113000, 4.752000, -0.107000, 0.13118200, 0.04795500, -0.08726600, -0.00208200000, 0.00096700000, 0.01433900000
273411.60, 2032, 35.63017423, 139.78646607, 45.6310, -3963346.5478, 3350892.5842, 3694943.2577, -1.359672, -0.714148, 326.438703, -3.116000, 4.764000, -0.101000, -0.03580900, -0.00874900, -0.14572000, -0.00599900000, -0.00380700000, 0.01646600000
273411.70, 2032, 35.63017853, 139.78646263, 45.6205, -3963346.1279, 3350892.6367, 3694943.6396, -1.381013, -0.724933, 326.536923, -3.100000, 4.780000, -0.106000, -0.04712000, 0.08765900, 0.38818400, 0.00427700000, 0.00671700000, 0.01825000000
273411.80, 2032, 35.63018285, 139.78645921, 45.6103, -3963345.7082, 3350892.6881, 3694944.0229, -1.362598, -0.662835, 326.642152, -3.117000, 4.806000, -0.111000, 0.02455100, 0.09090200, -0.19597900, -0.00526600000, 0.00119800000, 0.01622700000
273411.90, 2032, 35.63018721, 139.78645577, 45.5981, -3963345.2844, 3350892.7377, 3694944.4089, -1.355483, -0.690956, 326.719980, -3.107000, 4.867000, -0.129000, -0.07520100, 0.14205800, -0.09060000, 0.01784400000, -0.00928500000, 0.01312800000
273412.00, 2032, 35.63019162, 139.78645234, 45.5846, -3963344.8579, 3350892.7835, 3694944.7989, -1.197524, -0.762495, 326.799878, -3.099000, 4.908000, -0.120000, 0.32970700, 0.11421800, -0.03803800, 0.02565900000, -0.00424600000, 0.01451000000
273412.10, 2032, 35.63019606, 139.78644893, 45.5722, -3963344.4312, 3350892.8277, 3694945.1924, -1.020844, -0.752428, 326.896988, -3.079000, 4.944000, -0.117000, 0.61898800, 0.17804600, -0.02347900, 0.04285700000, 0.01248100000, 0.01949000000
273412.20, 2032, 35.63020054, 139.78644550, 45.5597, -3963344.0017, 3350892.8716, 3694945.5889, -0.828741, -0.739129, 326.997832, -3.140000, 4.991000, -0.132000, 0.48040400, 0.12880600, -0.00486300, 0.01706500000, -0.00676700000, 0.01549300000
273412.30, 2032, 35.63020503, 139.78644201, 45.5483, -3963343.5686, 3350892.9198, 3694945.9874, -0.818004, -0.700747, 327.074199, -3.178000, 4.980000, -0.095000, 0.44747800, 0.10286000, 0.18477000, -0.00268600000, 0.02300400000, 0.01225700000
273412.40, 2032, 35.63020954, 139.78643848, 45.5391, -3963343.1346, 3350892.9709, 3694946.3879, -0.870202, -0.531493, 327.115906, -3.204000, 5.001000, -0.080000, 0.59033400, -0.07090100, 0.04212300, -0.01425600000, 0.03933400000, 0.00440900000
273412.50, 2032, 35.63021408, 139.78643493, 45.5301, -3963342.6971, 3350893.0225, 3694946.7922, -0.935653, -0.364972, 327.139872, -3.231000, 5.075000, -0.095000, 0.72489300, 0.14075200, -0.61039500, -0.00517000000, 0.01826800000, 0.00400000000
273412.60, 2032, 35.63021868, 139.78643133, 45.5190, -3963342.2529, 3350893.0733, 3694947.2008, -0.971220, -0.347545, 327.153496, -3.269000, 5.135000, -0.115000, 0.29844800, -0.31602800, 0.31430600, -0.00055200000, -0.00070500000, 0.00335100000
273412.70, 2032, 35.63022332, 139.78642771, 45.5096, -3963341.8064, 3350893.1254, 3694947.6134, -0.968556, -0.300259, 327.178137, -3.300000, 5.151000, -0.077000, 0.45407700, 0.15169900, -0.86885800, -0.00492000000, 0.01170400000, 0.00162800000
273412.80, 2032, 35.63022799, 139.78642404, 45.5015, -3963341.3556, 3350893.1804, 3694948.0302, -1.017573, -0.317182, 327.144195, -3.354000, 5.222000, -0.090000, 0.33708600, -0.15862400, -0.41763000, -0.00336400000, -0.01806800000, -0.00988100000
273412.90, 2032, 35.63023270, 139.78642030, 45.4929, -3963340.8991, 3350893.2375, 3694948.4505, -1.061956, -0.424593, 327.080913, -3.401000, 5.240000, -0.077000, 0.47848100, -0.28597600, -0.08600800, -0.00893400000, -0.01475600000, -0.01051900000
273413.00, 2032, 35.63023744, 139.78641652, 45.4828, -3963340.4379, 3350893.2960, 3694948.8718, -1.141179, -0.526879, 327.035532, -3.452000, 5.267000, -0.112000, 0.62627500, 0.18151000, 0.07158100, -0.02042800000, -0.01842100000, -0.00980600000
273413.10, 2032, 35.63024220, 139.78641270, 45.4720, -3963339.9729, 3350893.3559, 3694949.2947, -1.242299, -0.595092, 326.945189, -3.471000, 5.295000, -0.105000, 0.55220800, 0.03619700, 0.23134200, -0.01518400000, -0.00510200000, -0.02346500000
273413.20, 2032, 35.63024699, 139.78640886, 45.4613, -3963339.5053, 3350893.4161, 3694949.7203, -1.280252, -0.621749, 326.805637, -3.485000, 5.331000, -0.109000, 0.29779300, -0.09932700, 0.29277300, 0.00297500000, -0.00055500000, -0.02378600000
273413.30, 2032, 35.63025181, 139.78640500, 45.4497, -3963339.0344, 3350893.4760, 3694950.1482, -1.239132, -0.631328, 326.672104, -3.508000, 5.350000, -0.105000, 0.25907600, -0.12193700, 0.22946600, 0.00696000000, 0.00828400000, -0.02279500000
273413.40, 2032, 35.63025664, 139.78640110, 45.4381, -3963338.5605, 3350893.5379, 3694950.5774, -1.208797, -0.590648, 326.521641, -3.556000, 5.371000, -0.121000, 0.50699700, -0.11529500, 0.07000900, -0.00014800000, 0.01082900000, -0.03024100000
273413.50, 2032, 35.63026150, 139.78639715, 45.4256, -3963338.0822, 3350893.6020, 3694951.0079, -1.197490, -0.545791, 326.324152, -3.600000, 5.407000, -0.135000, 0.53216300, -0.25904100, -0.25467600, 0.00730800000, 0.00210200000, -0.03548300000
273413.60, 2032, 35.63026638, 139.78639315, 45.4122, -3963337.5989, 3350893.6679, 3694951.4404, -1.148789, -0.556096, 326.118616, -3.652000, 5.425000, -0.128000, 0.46994700, -0.13467900, -0.18487800, 0.00464400000, -0.00239200000, -0.03643300000
273413.70, 2032, 35.63027128, 139.78638909, 45.3991, -3963337.1112, 3350893.7373, 3694951.8750, -1.130455, -0.616634, 325.905616, -3.701000, 5.446000, -0.123000, 0.43460100, -0.26776000, -0.24920700, -0.00036200000, -0.00912300000, -0.03850000000
273413.80, 2032, 35.63027621, 139.78638498, 45.3862, -3963336.6198, 3350893.8093, 3694952.3115, -1.112107, -0.702083, 325.680863, -3.736000, 5.483000, -0.141000, 0.53406200, -0.44072600, 0.27168300, 0.01451400000, -0.01770300000, -0.03852800000
273413.90, 2032, 35.63028115, 139.78638083, 45.3720, -3963336.1246, 3350893.8826, 3694952.7488, -1.046314, -0.779644, 325.468874, -3.785000, 5.494000, -0.159000, 0.42237200, -0.28594500, 0.30834600, 0.00757700000, -0.01696600000, -0.03716100000
273414.00, 2032, 35.63028610, 139.78637663, 45.3570, -3963335.6253, 3350893.9586, 3694953.1865, -1.022665, -0.850451, 325.252483, -3.824000, 5.498000, -0.154000, 0.16984500, -0.23536100, 0.05360600, 0.00380200000, -0.00955900000, -0.03921500000
273414.10, 2032, 35.63029106, 139.78637239, 45.3418, -3963335.1231, 3350894.0367, 3694953.6252, -0.973694, -0.875493, 325.018857, -3.852000, 5.507000, -0.147000, 0.32107700, -0.29355600, 0.12375600, 0.00912400000, 0.00252400000, -0.04065200000
273414.20, 2032, 35.63029603, 139.78636811, 45.3263, -3963334.6177, 3350894.1175, 3694954.0642, -0.940596, -0.866730, 324.782552, -3.901000, 5.515000, -0.155000, 0.50697300, -0.30864600, -0.18835100, 0.00596700000, 0.00517400000, -0.04123500000
273414.30, 2032, 35.63030102, 139.78636377, 45.3091, -3963334.1072, 3350894.2002, 3694954.5041, -0.883417, -0.909911, 324.552260, -3.961000, 5.551000, -0.183000, 0.33213500, -0.23135500, -0.17367500, 0.00446100000, -0.01646700000, -0.04099500000
273414.40, 2032, 35.63030602, 139.78635939, 45.2916, -3963333.5929, 3350894.2856, 3694954.9451, -0.846877, -0.962849, 324.318226, -3.984000, 5.546000, -0.162000, 0.15683300, -0.46408700, 0.05852700, 0.00754500000, 0.00209100000, -0.04141300000
273414.50, 2032, 35.63031104, 139.78635497, 45.2741, -3963333.0760, 3350894.3731, 3694955.3871, -0.768136, -0.988297, 324.080533, -4.025000, 5.573000, -0.183000, 0.40996800, -0.33701800, -0.19831400, 0.01698200000, -0.00793300000, -0.04080500000
273414.60, 2032, 35.63031606, 139.78635049, 45.2560, -3963332.5549, 3350894.4638, 3694955.8295, -0.723874, -1.059578, 323.854557, -4.091000, 5.570000, -0.176000, 0.45664800, -0.04838300, 0.44387200, -0.00479800000, -0.01030700000, -0.04053700000
273414.70, 2032, 35.63032106, 139.78634597, 45.2403, -3963332.0337, 3350894.5594, 3694956.2717, -0.754397, -1.007808, 323.624940, -4.109000, 5.548000, -0.156000, 0.42040200, -0.37401100, 0.03903500, -0.00607800000, 0.01763700000, -0.03702700000
273414.80, 2032, 35.63032607, 139.78634142, 45.2251, -3963331.5111, 3350894.6573, 3694956.7142, -0.782620, -0.895919, 323.440953, -4.144000, 5.552000, -0.149000, 0.35553100, -0.26817600, -0.30335900, -0.01436700000, 0.01726200000, -0.02679000000
273414.90, 2032, 35.63033109, 139.78633683, 45.2085, -3963330.9845, 3350894.7565, 3694957.1575, -0.858837, -0.851253, 323.321266, -4.170000, 5.574000, -0.160000, 0.37338700, -0.17070100, -0.04885700, -0.01809800000, 0.01137900000, -0.01634200000
273415.00, 2032, 35.63033612, 139.78633221, 45.1928, -3963330.4565, 3350894.8573, 3694957.6023, -0.965299, -0.798015, 323.242980, -4.176000, 5.584000, -0.132000, 0.24750200, -0.18172300, -0.40966100, -0.01494000000, 0.02149700000, -0.01007700000
273415.10, 2032, 35.63034119, 139.78632759, 45.1783, -3963329.9269, 3350894.9584, 3694958.0506, -1.030227, -0.785007, 323.208500, -4.195000, 5.643000, -0.142000, 0.16336800, -0.09603100, -0.28858700, -0.00471000000, -0.00535900000, -0.00139200000
273415.20, 2032, 35.63034630, 139.78632294, 45.1622, -3963329.3930, 3350895.0582, 3694958.5019, -1.075350, -0.891380, 323.227513, -4.216000, 5.666000, -0.146000, 0.05304800, 0.17155100, 0.03685500, -0.01708200000, -0.01137500000, 0.00497000000
273415.30, 2032, 35.63035144, 139.78631829, 45.1447, -3963328.8566, 3350895.1563, 3694958.9549, -1.109926, -0.994760, 323.265656, -4.190000, 5.712000, -0.171000, 0.42182600, 0.09496200, 0.02834900, 0.01146800000, -0.00553700000, 0.00776700000
273415.40, 2032, 35.63035661, 139.78631364, 45.1260, -3963328.3179, 3350895.2522, 3694959.4105, -1.061816, -1.105198, 323.312105, -4.232000, 5.741000, -0.180000, 0.07340400, 0.10447500, 0.26745600, -0.00807500000, -0.01880000000, 0.00696900000
273415.50, 2032, 35.63036180, 139.78630897, 45.1066, -3963327.7765, 3350895.3485, 3694959.8673, -1.068887, -1.213438, 323.354454, -4.233000, 5.748000, -0.171000, 0.14235000, -0.08648000, 0.12461700, -0.00832100000, -0.00002500000, 0.00588000000
273415.60, 2032, 35.63036699, 139.78630429, 45.0881, -3963327.2349, 3350895.4458, 3694960.3248, -1.116674, -1.208880, 323.385609, -4.236000, 5.744000, -0.158000, 0.37886200, -0.07652800, 0.05288700, -0.01145400000, 0.02430600000, 0.00513800000
273415.70, 2032, 35.63037220, 139.78629961, 45.0691, -3963326.6919, 3350895.5425, 3694960.7836, -1.126345, -1.144296, 323.414375, -4.246000, 5.792000, -0.187000, 0.46991700, -0.10836900, -0.13597200, -0.00189900000, 0.01409600000, 0.00623700000
273415.80, 2032, 35.63037745, 139.78629490, 45.0477, -3963326.1446, 3350895.6377, 3694961.2443, -1.135511, -1.149694, 323.466953, -4.275000, 5.840000, -0.224000, 0.67649600, 0.08716900, -0.21968800, -0.00258600000, -0.00785400000, 0.00972400000
273415.90, 2032, 35.63038272, 139.78629018, 45.0263, -3963325.5952, 3350895.7331, 3694961.7071, -1.157749, -1.177493, 323.521268, -4.275000, 5.851000, -0.197000, 0.29109100, 0.08993800, -0.39381300, -0.00183300000, 0.00098300000, 0.00975000000
273416.00, 2032, 35.63038801, 139.78628546, 45.0061, -3963325.0455, 3350895.8282, 3694962.1724, -1.129757, -1.217442, 323.587114, -4.279000, 5.881000, -0.201000, 0.19273400, 0.13090600, -0.15520300, 0.00437000000, -0.01099500000, 0.01065200000
273416.10, 2032, 35.63039330, 139.78628074, 44.9864, -3963324.4957, 3350895.9233, 3694962.6387, -1.144625, -1.267276, 323.638295, -4.270000, 5.874000, -0.191000, 0.11574400, 0.15089300, 0.14463400, -0.00416000000, -0.00519900000, 0.00781900000
273416.20, 2032, 35.63039860, 139.78627604, 44.9662, -3963323.9469, 3350896.0173, 3694963.1041, -1.155137, -1.275148, 323.683433, -4.255000, 5.871000, -0.216000, -0.08929000, -0.06915400, 0.03950600, -0.00060600000, -0.00079500000, 0.00861800000
273416.30, 2032, 35.63040388, 139.78627135, 44.9456, -3963323.3991, 3350896.1102, 3694963.5686, -1.165179, -1.248803, 323.732941, -4.238000, 5.868000, -0.214000, -0.55070200, 0.15654500, -0.09091500, 0.00291100000, 0.00015400000, 0.00870600000
273416.40, 2032, 35.63040916, 139.78626667, 44.9250, -3963322.8520, 3350896.2024, 3694964.0331, -1.179927, -1.251957, 323.780373, -4.237000, 5.857000, -0.194000, -0.10575900, -0.01156900, -0.22259900, -0.00883200000, -0.00127600000, 0.00867900000
273416.50, 2032, 35.63041445, 139.78626202, 44.9052, -3963322.3067, 3350896.2935, 3694964.4980, -1.170554, -1.238878, 323.846070, -4.195000, 5.866000, -0.202000, -0.04406500, -0.11449500, -0.13502700, 0.01408100000, 0.00393300000, 0.01433800000
273416.60, 2032, 35.63041973, 139.78625737, 44.8846, -3963321.7614, 3350896.3834, 3694964.9627, -1.157148, -1.263501, 323.933487, -4.208000, 5.872000, -0.216000, -0.19840700, 0.03710900, 0.25758700, 0.00185100000, -0.00999400000, 0.01520500000
273416.70, 2032, 35.63042502, 139.78625272, 44.8642, -3963321.2159, 3350896.4739, 3694965.4274, -1.216419, -1.302886, 324.017572, -4.224000, 5.870000, -0.216000, 0.01280700, 0.03089900, 0.15906000, -0.01626800000, -0.01808900000, 0.01515500000
273416.80, 2032, 35.63043030, 139.78624808, 44.8438, -3963320.6708, 3350896.5637, 3694965.8922, -1.279401, -1.335163, 324.118889, -4.186000, 5.843000, -0.170000, -0.03887600, 0.22858600, -0.10178200, -0.01194900000, 0.01718700000, 0.01868600000
273416.90, 2032, 35.63043560, 139.78624345, 44.8234, -3963320.1258, 3350896.6527, 3694966.3578, -1.351850, -1.333627, 324.214239, -4.199000, 5.887000, -0.209000, 0.56462700, -0.13704900, -0.15787000, -0.01243000000, -0.00043400000, 0.01655800000
273417.00, 2032, 35.63044092, 139.78623881, 44.8027, -3963319.5791, 3350896.7403, 3694966.8256, -1.416927, -1.333503, 324.313752, -4.196000, 5.922000, -0.205000, 0.17257800, 0.15176900, 0.15476200, -0.00643500000, 0.00187400000, 0.01723200000
273417.10, 2032, 35.63044627, 139.78623418, 44.7824, -3963319.0319, 3350896.8267, 3694967.2961, -1.447749, -1.267693, 324.414483, -4.190000, 5.952000, -0.210000, 0.60458400, 0.47229200, 0.30873100, -0.00129100000, 0.01255100000, 0.01830900000
273417.20, 2032, 35.63045165, 139.78622955, 44.7617, -3963318.4826, 3350896.9116, 3694967.7692, -1.454201, -1.205803, 324.523097, -4.199000, 5.994000, -0.213000, 0.26803700, 0.22308000, 0.06571900, 0.00306600000, 0.00549600000, 0.01991400000
273417.30, 2032, 35.63045707, 139.78622491, 44.7404, -3963317.9308, 3350896.9951, 3694968.2455, -1.449616, -1.188108, 324.636578, -4.202000, 6.027000, -0.208000, 0.21334500, 0.26981800, -0.07368900, -0.00015400000, 0.00322700000, 0.01893500000
273417.40, 2032, 35.63046250, 139.78622028, 44.7207, -3963317.3790, 3350897.0785, 3694968.7243, -1.454021, -1.132852, 324.742972, -4.201000, 6.045000, -0.198000, 0.08626200, 0.08515000, -0.00803300, -0.00064000000, 0.00676100000, 0.01899600000
273417.50, 2032, 35.63046797, 139.78621563, 44.7010, -3963316.8254, 3350897.1618, 3694969.2053, -1.472992, -1.122115, 324.853215, -4.218000, 6.079000, -0.198000, 0.16614600, 0.24648600, -0.25399500, -0.00383700000, -0.00424100000, 0.01870600000
273417.60, 2032, 35.63047346, 139.78621098, 44.6806, -3963316.2693, 3350897.2435, 3694969.6892, -1.488172, -1.152701, 324.954490, -4.212000, 6.120000, -0.208000, 0.26997500, 0.11409200, 0.26965900, 0.00285100000, -0.00346700000, 0.01673600000
273417.70, 2032, 35.63047899, 139.78620635, 44.6611, -3963315.7134, 3350897.3229, 3694970.1765, -1.408224, -1.107856, 325.060248, -4.194000, 6.152000, -0.193000, 0.50152000, 0.25853100, -0.29676600, 0.01382400000, 0.00651100000, 0.02051500000
273417.80, 2032, 35.63048456, 139.78620170, 44.6398, -3963315.1533, 3350897.4008, 3694970.6664, -1.353770, -1.162664, 325.186333, -4.228000, 6.208000, -0.227000, 0.33903800, 0.24460200, -0.11281600, 0.00733300000, -0.02358500000, 0.02203100000
273417.90, 2032, 35.63049016, 139.78619703, 44.6171, -3963314.5898, 3350897.4784, 3694971.1581, -1.355105, -1.259687, 325.305734, -4.223000, 6.213000, -0.222000, 0.20745200, 0.19531400, 0.28709400, 0.00239500000, -0.00389700000, 0.01882200000
273418.00, 2032, 35.63049578, 139.78619235, 44.5952, -3963314.0256, 3350897.5556, 3694971.6520, -1.346673, -1.292088, 325.402172, -4.245000, 6.261000, -0.231000, 0.14937400, 0.23918800, -0.08931800, 0.00041700000, -0.01831800000, 0.01423800000
273418.10, 2032, 35.63050143, 139.78618767, 44.5724, -3963313.4583, 3350897.6317, 3694972.1487, -1.342736, -1.380205, 325.493893, -4.241000, 6.284000, -0.220000, 0.36334700, 0.27735900, 0.18485200, 0.00251000000, -0.00783700000, 0.01601600000
273418.20, 2032, 35.63050711, 139.78618298, 44.5485, -3963312.8891, 3350897.7065, 3694972.6468, -1.328740, -1.421340, 325.570933, -4.251000, 6.314000, -0.258000, 0.53983300, 0.28148600, 0.15072000, 0.00377700000, -0.00493300000, 0.01058800000
273418.30, 2032, 35.63051281, 139.78617828, 44.5241, -3963312.3177, 3350897.7812, 3694973.1465, -1.321284, -1.418734, 325.632829, -4.270000, 6.341000, -0.252000, -0.07568500, 0.00608100, 0.26766000, 0.00421100000, -0.00443500000, 0.01201100000
273418.40, 2032, 35.63051854, 139.78617355, 44.4990, -3963311.7429, 3350897.8557, 3694973.6486, -1.318382, -1.455196, 325.698811, -4.291000, 6.367000, -0.243000, 0.52789200, 0.16764100, 0.04259400, -0.00756900000, -0.00374700000, 0.01027300000
273418.50, 2032, 35.63052429, 139.78616881, 44.4743, -3963311.1664, 3350897.9308, 3694974.1528, -1.365573, -1.466829, 325.758615, -4.307000, 6.401000, -0.263000, 0.35079000, -0.00073700, 0.21094800, -0.00423500000, -0.00817100000, 0.01088000000
273418.60, 2032, 35.63053007, 139.78616407, 44.4497, -3963310.5889, 3350898.0048, 3694974.6592, -1.343230, -1.447149, 325.831766, -4.289000, 6.419000, -0.240000, 0.19362800, 0.07509600, 0.02113900, 0.00590000000, 0.00832200000, 0.01417800000
273418.70, 2032, 35.63053585, 139.78615933, 44.4272, -3963310.0124, 3350898.0793, 3694975.1678, -1.357915, -1.337326, 325.890467, -4.287000, 6.420000, -0.211000, 0.65854500, 0.26765300, 0.08633600, -0.00243700000, 0.03044900000, 0.00813400000
273418.80, 2032, 35.63054165, 139.78615460, 44.4052, -3963309.4354, 3350898.1533, 3694975.6780, -1.372007, -1.197183, 325.944472, -4.299000, 6.453000, -0.233000, 0.14263700, 0.01847700, 0.14533400, -0.00143700000, 0.01561000000, 0.01166400000
273418.90, 2032, 35.63054747, 139.78614986, 44.3828, -3963308.8568, 3350898.2265, 3694976.1902, -1.343345, -1.100504, 326.005900, -4.292000, 6.464000, -0.208000, 0.06903500, 0.28561800, -0.36346700, 0.00242000000, 0.02207500000, 0.00985400000
273419.00, 2032, 35.63055333, 139.78614511, 44.3615, -3963308.2771, 3350898.2995, 3694976.7055, -1.332615, -1.060382, 326.060862, -4.293000, 6.528000, -0.218000, 0.36032000, -0.03779900, -0.27575100, 0.01932900000, -0.00732000000, 0.01119300000
273419.10, 2032, 35.63055922, 139.78614036, 44.3394, -3963307.6948, 3350898.3706, 3694977.2239, -1.258907, -1.150910, 326.128611, -4.306000, 6.533000, -0.206000, -0.09270300, 0.15728000, -0.05664400, 0.00529100000, -0.01102700000, 0.01146700000
273419.20, 2032, 35.63056511, 139.78613559, 44.3178, -3963307.1115, 3350898.4430, 3694977.7430, -1.258510, -1.254528, 326.190959, -4.326000, 6.539000, -0.207000, 0.32217400, 0.04669600, -0.02728500, -0.00379000000, -0.01425700000, 0.00733300000
273419.30, 2032, 35.63057101, 139.78613082, 44.2963, -3963306.5281, 3350898.5157, 3694978.2624, -1.254869, -1.317183, 326.219011, -4.318000, 6.550000, -0.222000, 0.08592200, -0.01428900, 0.22823400, 0.00818600000, -0.00966100000, 0.00164700000
273419.40, 2032, 35.63057691, 139.78612605, 44.2730, -3963305.9432, 3350898.5869, 3694978.7812, -1.210536, -1.354456, 326.196354, -4.331000, 6.548000, -0.240000, 0.04064200, 0.13374700, 0.42675900, 0.00045100000, -0.00362900000, -0.00734200000
273419.50, 2032, 35.63058282, 139.78612127, 44.2484, -3963305.3568, 3350898.6582, 3694979.2996, -1.158927, -1.375693, 326.157519, -4.332000, 6.558000, -0.252000, 0.15470700, -0.19549900, -0.25398300, 0.01394100000, -0.00468400000, -0.00564100000
273419.60, 2032, 35.63058872, 139.78611647, 44.2238, -3963304.7693, 3350898.7312, 3694979.8175, -1.152929, -1.399885, 326.127601, -4.367000, 6.538000, -0.238000, 0.01084100, -0.31633500, -0.15080200, -0.00924700000, -0.00028100000, -0.00592600000
273419.70, 2032, 35.63059461, 139.78611164, 44.2008, -3963304.1818, 3350898.8074, 3694980.3353, -1.215085, -1.386247, 326.084255, -4.376000, 6.528000, -0.219000, -0.14040000, -0.07554300, -0.24630400, -0.01022700000, 0.00843400000, -0.00728900000
273419.80, 2032, 35.63060050, 139.78610681, 44.1785, -3963303.5948, 3350898.8839, 3694980.8536, -1.249229, -1.337967, 326.037450, -4.373000, 6.538000, -0.222000, 0.05512500, 0.00819300, 0.38936300, -0.00289700000, 0.01188200000, -0.00747200000
273419.90, 2032, 35.63060640, 139.78610198, 44.1557, -3963303.0074, 3350898.9595, 3694981.3722, -1.238707, -1.262809, 325.998790, -4.378000, 6.551000, -0.240000, 0.25036400, -0.09721000, -0.07024900, 0.00104300000, 0.00699700000, -0.00559300000
273420.00, 2032, 35.63061231, 139.78609714, 44.1319, -3963302.4178, 3350899.0354, 3694981.8912, -1.244574, -1.257720, 325.975556, -4.400000, 6.555000, -0.230000, 0.02171000, -0.05827400, -0.26214900, -0.00926100000, -0.00213000000, -0.00335900000
273420.10, 2032, 35.63061822, 139.78609228, 44.1091, -3963301.8274, 3350899.1129, 3694982.4112, -1.301732, -1.292507, 325.969123, -4.402000, 6.566000, -0.228000, -0.02503600, -0.18704300, -0.14708100, -0.00850900000, -0.00621000000, 0.00152200000
273420.20, 2032, 35.63062415, 139.78608742, 44.0864, -3963301.2365, 3350899.1900, 3694982.9323, -1.352376, -1.344336, 325.980779, -4.398000, 6.591000, -0.235000, -0.00977200, -0.03810600, 0.22085900, 0.00060300000, -0.01581200000, 0.00329900000
273420.30, 2032, 35.63063009, 139.78608258, 44.0630, -3963300.6457, 3350899.2647, 3694983.4545, -1.319895, -1.390669, 326.004302, -4.374000, 6.591000, -0.226000, 0.02152100, 0.13804900, 0.28230900, 0.00703700000, -0.00007700000, 0.00528500000
273420.40, 2032, 35.63063604, 139.78607775, 44.0389, -3963300.0549, 3350899.3375, 3694983.9769, -1.274647, -1.399573, 326.045103, -4.377000, 6.605000, -0.253000, 0.00154500, 0.07617500, 0.19725600, 0.00351700000, -0.00402300000, 0.00661600000
273420.50, 2032, 35.63064199, 139.78607292, 44.0135, -3963299.4626, 3350899.4100, 3694984.4990, -1.250323, -1.422536, 326.074744, -4.381000, 6.604000, -0.252000, -0.27194200, 0.11427700, 0.10432600, 0.00237900000, -0.00076000000, 0.00399000000
273420.60, 2032, 35.63064794, 139.78606810, 43.9901, -3963298.8724, 3350899.4830, 3694985.0219, -1.220470, -1.365901, 326.096788, -4.360000, 6.588000, -0.217000, 0.16577800, 0.18281900, -0.04565400, 0.00187000000, 0.02127900000, 0.00406400000
273420.70, 2032, 35.63065389, 139.78606329, 43.9676, -3963298.2834, 3350899.5560, 3694985.5451, -1.186502, -1.278107, 326.116404, -4.351000, 6.600000, -0.224000, 0.14863900, 0.21972300, 0.05754400, 0.01185800000, 0.01861900000, 0.00433700000
273420.80, 2032, 35.63065984, 139.78605846, 43.9457, -3963297.6944, 3350899.6298, 3694986.0685, -1.188966, -1.174986, 326.141835, -4.389000, 6.599000, -0.222000, -0.01296100, 0.10068800, -0.35295900, -0.01493800000, 0.00646600000, 0.00416200000
273420.90, 2032, 35.63066578, 139.78605361, 43.9235, -3963297.1031, 3350899.7057, 3694986.5921, -1.286491, -1.170526, 326.162919, -4.400000, 6.594000, -0.206000, 0.05872600, -0.02330800, -0.30949500, -0.01659300000, 0.00518800000, 0.00372600000
273421.00, 2032, 35.63067175, 139.78604875, 43.9019, -3963296.5115, 3350899.7816, 3694987.1171, -1.329537, -1.196002, 326.187161, -4.405000, 6.621000, -0.220000, -0.14679600, 0.28979500, -0.50003300, -0.00973600000, -0.01324400000, 0.00312500000
273421.10, 2032, 35.63067772, 139.78604388, 43.8795, -3963295.9177, 3350899.8571, 3694987.6431, -1.415497, -1.338999, 326.198968, -4.398000, 6.634000, -0.218000, 0.12622500, -0.15736200, 0.68259700, -0.00698600000, -0.01605900000, 0.00307200000
273421.20, 2032, 35.63068370, 139.78603906, 43.8583, -3963295.3275, 3350899.9307, 3694988.1693, -1.371852, -1.326393, 326.244220, -4.335000, 6.620000, -0.213000, -0.04841100, 0.08025300, 0.46013000, 0.02710600000, 0.01751700000, 0.01190700000
273421.30, 2032, 35.63068966, 139.78603423, 43.8367, -3963294.7372, 3350900.0046, 3694988.6945, -1.405282, -1.293621, 326.283485, -4.404000, 6.613000, -0.220000, 0.17830100, 0.23621700, 0.47780400, -0.02821900000, 0.00022500000, 0.00209500000
273421.40, 2032, 35.63069560, 139.78602938, 43.8156, -3963294.1475, 3350900.0809, 3694989.2180, -1.545644, -1.186654, 326.276874, -4.340000, 6.580000, -0.196000, -0.15133500, -0.56118700, 0.23130500, 0.01075500000, 0.04755800000, 0.00261100000
273421.50, 2032, 35.63070153, 139.78602457, 43.7981, -3963293.5627, 3350900.1565, 3694989.7428, -1.534806, -0.923883, 326.273760, -4.356000, 6.601000, -0.182000, 0.55962100, 0.23104000, -1.33886000, 0.00360600000, 0.02800900000, -0.00378800000
273421.60, 2032, 35.63070750, 139.78601973, 43.7779, -3963292.9721, 3350900.2319, 3694990.2694, -1.579552, -0.920990, 326.231693, -4.414000, 6.648000, -0.229000, 0.10489200, 0.04748500, -0.30264800, -0.01004400000, -0.02491700000, -0.00592700000
273421.70, 2032, 35.63071348, 139.78601487, 43.7573, -3963292.3799, 3350900.3076, 3694990.7969, -1.572512, -0.986857, 326.226683, -4.377000, 6.629000, -0.174000, -0.11700200, 0.41070300, -1.82674100, 0.01705400000, -0.00256600000, -0.00092400000
273421.80, 2032, 35.63071948, 139.78600999, 43.7385, -3963291.7871, 3350900.3848, 3694991.3267, -1.604885, -1.172361, 326.186560, -4.431000, 6.681000, -0.212000, 0.32035400, 0.13701600, 0.79653500, -0.00248300000, -0.05351600000, -0.00817600000
273421.90, 2032, 35.63072548, 139.78600512, 43.7182, -3963291.1936, 3350900.4607, 3694991.8558, -1.569882, -1.350573, 326.178558, -4.407000, 6.640000, -0.218000, -0.05531000, 0.03144400, 1.09996900, 0.00492100000, -0.01759100000, 0.00148900000
273422.00, 2032, 35.63073146, 139.78600026, 43.6948, -3963290.5996, 3350900.5352, 3694992.3813, -1.556348, -1.395498, 326.189328, -4.415000, 6.635000, -0.267000, 0.21328400, 0.19125600, 0.25759800, -0.00558300000, -0.01295600000, -0.00234100000
273422.10, 2032, 35.63073744, 139.78599538, 43.6688, -3963290.0030, 3350900.6097, 3694992.9053, -1.622604, -1.464051, 326.157428, -4.420000, 6.642000, -0.264000, 0.03707300, 0.08298600, 0.05699400, -0.00302400000, -0.01522900000, -0.00703600000
273422.20, 2032, 35.63074342, 139.78599052, 43.6429, -3963289.4067, 3350900.6829, 3694993.4302, -1.587628, -1.508812, 326.111057, -4.399000, 6.648000, -0.260000, 0.07369700, -0.04897200, 0.06287500, 0.01145500000, -0.00306500000, -0.00776900000
273422.30, 2032, 35.63074941, 139.78598566, 43.6181, -3963288.8121, 3350900.7556, 3694993.9556, -1.512727, -1.472572, 326.075886, -4.386000, 6.644000, -0.247000, 0.28942900, -0.17021100, -0.00585900, 0.01997800000, 0.01077400000, -0.00389400000
273422.40, 2032, 35.63075539, 139.78598081, 43.5934, -3963288.2174, 3350900.8289, 3694994.4808, -1.442031, -1.402566, 326.066077, -4.409000, 6.629000, -0.238000, 0.08026300, -0.04261200, 0.10985000, 0.00441100000, 0.01983100000, -0.00099400000
273422.50, 2032, 35.63076138, 139.78597593, 43.5690, -3963287.6215, 3350900.9040, 3694995.0061, -1.434070, -1.308136, 326.039586, -4.436000, 6.643000, -0.247000, 0.18874800, -0.18745200, -0.27141900, -0.00328600000, 0.01388700000, -0.00567500000
273422.60, 2032, 35.63076738, 139.78597102, 43.5443, -3963287.0230, 3350900.9798, 3694995.5331, -1.418162, -1.260154, 326.003700, -4.447000, 6.676000, -0.242000, 0.20717300, 0.00649500, -0.37774900, 0.00833500000, 0.00404400000, -0.00614700000
273422.70, 2032, 35.63077340, 139.78596609, 43.5211, -3963286.4232, 3350901.0573, 3694996.0625, -1.420750, -1.246241, 325.964577, -4.472000, 6.677000, -0.209000, 0.23939800, -0.06992700, -0.35966700, -0.00455300000, 0.00893600000, -0.00727900000
273422.80, 2032, 35.63077944, 139.78596114, 43.4986, -3963285.8219, 3350901.1359, 3694996.5937, -1.413084, -1.250915, 325.934686, -4.495000, 6.706000, -0.234000, 0.43557000, -0.10099800, 0.04963400, 0.00045200000, -0.00577600000, -0.00420000000
273422.90, 2032, 35.63078548, 139.78595617, 43.4748, -3963285.2178, 3350901.2150, 3694997.1253, -1.420350, -1.300092, 325.914464, -4.518000, 6.711000, -0.234000, 0.00875900, 0.08086200, 0.41009000, -0.01006300000, -0.00483400000, -0.00559600000
273423.00, 2032, 35.63079153, 139.78595119, 43.4519, -3963284.6135, 3350901.2955, 3694997.6573, -1.464028, -1.290567, 325.874901, -4.509000, 6.717000, -0.232000, 0.17185200, -0.07703400, 0.01525300, 0.00278100000, 0.00505800000, -0.00596800000
273423.10, 2032, 35.63079758, 139.78594621, 43.4298, -3963284.0097, 3350901.3757, 3694998.1903, -1.444573, -1.229056, 325.844683, -4.516000, 6.709000, -0.211000, 0.10801600, 0.05062000, 0.00986100, -0.00212200000, 0.01613600000, -0.00460900000
273423.20, 2032, 35.63080365, 139.78594122, 43.4073, -3963283.4047, 3350901.4562, 3694998.7238, -1.434305, -1.173966, 325.815832, -4.534000, 6.723000, -0.222000, 0.28127600, -0.30587400, -0.18090800, -0.00539900000, 0.00978900000, -0.00487400000
273423.30, 2032, 35.63080972, 139.78593622, 43.3841, -3963282.7981, 3350901.5363, 3694999.2582, -1.399350, -1.138851, 325.791044, -4.531000, 6.749000, -0.233000, 0.32005500, 0.05531600, -0.15703100, 0.00684800000, 0.00295600000, -0.00407900000
273423.40, 2032, 35.63081581, 139.78593120, 43.3614, -3963282.1902, 3350901.6172, 3694999.7941, -1.365293, -1.153719, 325.759837, -4.554000, 6.767000, -0.226000, 0.13222200, 0.09324100, -0.17183000, 0.00459900000, -0.01002600000, -0.00604600000
273423.50, 2032, 35.63082191, 139.78592616, 43.3394, -3963281.5808, 3350901.6998, 3695000.3311, -1.381156, -1.213614, 325.726087, -4.572000, 6.764000, -0.217000, -0.18614600, -0.19350400, -0.01284900, -0.00516200000, -0.00819700000, -0.00544800000
273423.60, 2032, 35.63082801, 139.78592110, 43.3164, -3963280.9694, 3350901.7833, 3695000.8679, -1.409912, -1.291765, 325.689415, -4.586000, 6.766000, -0.233000, 0.13889400, -0.02854800, -0.04605900, -0.00301500000, -0.00891900000, -0.00669600000
273423.70, 2032, 35.63083410, 139.78591603, 43.2933, -3963280.3576, 3350901.8677, 3695001.4039, -1.469755, -1.337324, 325.648652, -4.595000, 6.760000, -0.233000, 0.05014100, -0.08065800, 0.26396600, -0.00858900000, -0.00386300000, -0.00729300000
273423.80, 2032, 35.63084019, 139.78591095, 43.2713, -3963279.7469, 3350901.9531, 3695001.9398, -1.511795, -1.294144, 325.609805, -4.597000, 6.747000, -0.224000, -0.05673300, -0.09088700, 0.08113900, -0.00700700000, 0.00970800000, -0.00508700000
273423.90, 2032, 35.63084628, 139.78590588, 43.2476, -3963279.1347, 3350902.0379, 3695002.4752, -1.540112, -1.259848, 325.592391, -4.607000, 6.747000, -0.227000, 0.14933900, -0.04139600, -0.19304000, -0.01063900000, 0.01133500000, -0.00333900000
273424.00, 2032, 35.63085237, 139.78590080, 43.2238, -3963278.5220, 3350902.1219, 3695003.0113, -1.516009, -1.225991, 325.567797, -4.581000, 6.791000, -0.251000, 0.43963900, -0.01954000, -0.17552500, 0.02325100000, 0.00027300000, -0.00260900000
